Sensor Model:   CX-1050-SD-1.4L
Serial Number:  X21238
Interpolation Method:   Lagrangian
SetPoint Limit: 325.      (Kelvin)
Data Format:    4      (Log Ohms/Kelvin)
Number of Breakpoints:   55

No.   Units      Temperature (K)

  1  1.76938       325.0
  2  1.77045       324.0
  3  1.78020       315.0
  4  1.79714       300.0
  5  1.81499       285.0
  6  1.83384       270.0
  7  1.85378       255.0
  8  1.87492       240.0
  9  1.89738       225.0
 10  1.92131       210.0
 11  1.94689       195.0
 12  1.97434       180.0
 13  2.00395       165.0
 14  2.03607       150.0
 15  2.07119       135.0
 16  2.10999       120.0
 17  2.15342       105.0
 18  2.20296        90.0
 19  2.26098        75.0
 20  2.31867        62.5
 21  2.35053        56.5
 22  2.38908        50.0
 23  2.42229        45.0
 24  2.45941        40.0
 25  2.50145        35.0
 26  2.54994        30.0
 27  2.60350        25.3
 28  2.65475        21.5
 29  2.70584        18.3
 30  2.75721        15.6
 31  2.80720        13.4
 32  2.85888        11.5
 33  2.90772        10.0
 34  2.95821         8.7
 35  3.00929         7.6
 36  3.05907         6.7
 37  3.11172         5.9
 38  3.15826         5.3
 39  3.21297         4.7
 40  3.25540         4.3
 41  3.30400         3.9
 42  3.34553         3.6
 43  3.39253         3.3
 44  3.44640         3.0
 45  3.48708         2.8
 46  3.53249         2.6
 47  3.58371         2.4
 48  3.61194         2.3
 49  3.67477         2.1
 50  3.70995         2.0
 51  3.74809         1.9
 52  3.78960         1.8
 53  3.83492         1.7
 54  3.93887         1.5
 55  3.99961         1.4
