Sensor Model:   DT-470-SD-13-1.4H
Serial Number:  D57327
Interpolation Method:   Straight Line
SetPoint Limit: 500.      (Kelvin)
Data Format:    2      (Volts/Kelvin)
Number of Breakpoints:   40

No.   Units      Temperature (K)

  1  0.04186       500.0
  2  0.04984       495.0
  3  0.05866       490.0
  4  0.06825       485.0
  5  0.07851       480.0
  6  0.08933       475.0
  7  0.10062       470.0
  8  0.12411       460.0
  9  0.17326       440.0
 10  0.28609       395.0
 11  0.38497       355.0
 12  0.49447       310.0
 13  0.61438       260.0
 14  0.69713       225.0
 15  0.76682       195.0
 16  0.82375       170.0
 17  0.87948       145.0
 18  0.92282       125.0
 19  0.95447       110.0
 20  0.98527        95.0
 21  1.01494        80.0
 22  1.04328        65.0
 23  1.06685        52.0
 24  1.09465        36.0
 25  1.10236        32.0
 26  1.10911        29.0
 27  1.11477        27.0
 28  1.11845        26.0
 29  1.12363        25.0
 30  1.13316        24.0
 31  1.15107        23.0
 32  1.19318        21.0
 33  1.28027        16.0
 34  1.34036        13.0
 35  1.40162        10.5
 36  1.48053         8.0
 37  1.63227         4.2
 38  1.68659         2.5
 39  1.70566         1.6
 40  1.70785         1.4
