Sensor Model:   CX-1030-CU-1.4L
Serial Number:  X11149
Interpolation Method:   Lagrangian
SetPoint Limit: 325.      (Kelvin)
Data Format:    4      (Log Ohms/Kelvin)
Number of Breakpoints:   54

No.   Units      Temperature (K)

  1  1.47760       325.0
  2  1.47833       324.0
  3  1.48355       317.0
  4  1.49526       302.0
  5  1.50776       287.0
  6  1.52111       272.0
  7  1.53538       257.0
  8  1.55065       242.0
  9  1.56702       227.0
 10  1.58460       212.0
 11  1.60352       197.0
 12  1.62394       182.0
 13  1.64605       167.0
 14  1.67010       152.0
 15  1.69638       137.0
 16  1.72530       122.0
 17  1.75745       107.0
 18  1.79378        92.0
 19  1.83580        77.0
 20  1.88045        63.5
 21  1.90512        57.0
 22  1.93470        50.0
 23  1.93968        48.9
 24  1.94711        47.3
 25  1.97187        42.3
 26  1.99937        37.3
 27  2.03033        32.3
 28  2.06277        27.7
 29  2.09420        23.8
 30  2.12559        20.4
 31  2.15755        17.4
 32  2.17811        15.7
 33  2.19403        14.5
 34  2.21003        13.4
 35  2.24660        11.2
 36  2.27427         9.8
 37  2.30686         8.4
 38  2.33731         7.3
 39  2.36666         6.4
 40  2.39739         5.6
 41  2.42921         4.9
 42  2.45575         4.4
 43  2.48652         3.9
 44  2.51512         3.5
 45  2.54837         3.1
 46  2.57727         2.8
 47  2.61060         2.5
 48  2.63596         2.3
 49  2.66453         2.1
 50  2.69719         1.9
 51  2.71544         1.8
 52  2.73525         1.7
 53  2.78068         1.5
 54  2.80681         1.4
