Sensor Model:   CX-1050-CU-1.4L
Serial Number:  X68437
Interpolation Method:   Lagrangian
SetPoint Limit: 325.0      (Kelvin)
Data Format:    4      (Log Ohms/Kelvin)
Number of Breakpoints:   53

No.   Units      Temperature (K)

  1  1.74016       325.0
  2  1.74125       324.0
  3  1.75460       312.0
  4  1.77220       297.0
  5  1.79088       282.0
  6  1.81075       267.0
  7  1.83193       252.0
  8  1.85452       237.0
  9  1.87869       222.0
 10  1.90460       207.0
 11  1.93246       192.0
 12  1.96252       177.0
 13  1.99509       162.0
 14  2.03056       147.0
 15  2.06944       132.0
 16  2.11242       117.0
 17  2.16054       102.0
 18  2.21537        87.0
 19  2.27938        72.0
 20  2.33455        61.0
 21  2.36564        55.5
 22  2.39969        50.0
 23  2.43375        45.0
 24  2.47143        40.0
 25  2.51365        35.0
 26  2.56171        30.0
 27  2.61524        25.2
 28  2.66623        21.3
 29  2.71704        18.0
 30  2.76828        15.2
 31  2.81867        12.9
 32  2.86880        11.0
 33  2.91987         9.4
 34  2.97015         8.1
 35  3.02167         7.0
 36  3.07263         6.1
 37  3.11998         5.4
 38  3.16796         4.8
 39  3.21498         4.3
 40  3.25867         3.9
 41  3.30947         3.5
 42  3.35361         3.2
 43  3.40446         2.9
 44  3.44304         2.7
 45  3.48626         2.5
 46  3.53513         2.3
 47  3.56211         2.2
 48  3.62220         2.0
 49  3.65591         1.9
 50  3.69256         1.8
 51  3.73265         1.7
 52  3.82606         1.5
 53  3.88099         1.4
