Sensor Model:   DT-470-SD-13-1.4H
Serial Number:  D57330
Interpolation Method:   Straight Line
SetPoint Limit: 500.      (Kelvin)
Data Format:    2      (Volts/Kelvin)
Number of Breakpoints:   40

No.   Units      Temperature (K)

  1  0.04353       500.0
  2  0.05168       495.0
  3  0.06064       490.0
  4  0.07036       485.0
  5  0.08072       480.0
  6  0.09161       475.0
  7  0.10294       470.0
  8  0.12649       460.0
  9  0.17562       440.0
 10  0.28821       395.0
 11  0.38678       355.0
 12  0.48387       315.0
 13  0.60362       265.0
 14  0.68631       230.0
 15  0.75602       200.0
 16  0.81297       175.0
 17  0.86878       150.0
 18  0.91224       130.0
 19  0.95453       110.0
 20  0.98512        95.0
 21  1.01468        80.0
 22  1.04286        65.0
 23  1.06984        50.0
 24  1.09257        37.0
 25  1.10224        32.0
 26  1.10911        29.0
 27  1.11479        27.0
 28  1.11850        26.0
 29  1.12369        25.0
 30  1.13338        24.0
 31  1.15169        23.0
 32  1.19400        21.0
 33  1.28200        16.0
 34  1.34268        13.0
 35  1.40366        10.5
 36  1.48146         8.0
 37  1.62875         4.2
 38  1.68382         2.4
 39  1.70138         1.5
 40  1.70220         1.4
