Tiempo (min)	I pulso(mA)	Vinst 1 (V)	Iinst 1 (mA)	Rinst 1(Ohm)	Rrem 1 (Ohm)	Ibias 1 (mA)	Vbias 1 (V)	Ancho pulso (s)	Periodo (s)	N	W	Rrem-Ro/Ro	t-to	dW/dt	t-tor (min)	dW/dt-tor	S-dW	WR	AE	AF
0.36350	3100.0	3.0994	0.53170	5829.2	10486	0.028600	0.29990	0.0100000	5.0000	1.0000										
0.51750	3100.0	3.1008	0.53450	5801.3	10101	0.029700	0.30000	0.0100000	5.0000	2.0000										
0.67164	3100.0	3.1008	0.53370	5810.0	11475	0.026100	0.29950	0.0100000	5.0000	3.0000										
0.82566	3100.0	3.1001	0.53440	5801.1	10667	0.028200	0.30080	0.0100000	5.0000	4.0000										
0.97964	3100.0	3.0998	0.53570	5786.4	10546	0.028400	0.29950	0.0100000	5.0000	5.0000										
1.1334	3100.0	3.0989	0.53480	5794.5	10580	0.028300	0.29940	0.0100000	5.0000	6.0000										
1.2873	3100.0	3.0995	0.53300	5815.2	11521	0.025900	0.29840	0.0100000	5.0000	7.0000										
1.4412	3100.0	3.0992	0.53360	5808.1	10635	0.028200	0.29990	0.0100000	5.0000	8.0000										
1.6283	3100.0	3.1000	0.60710	5106.2	10597	0.028300	0.29990	1.0000	5.0000	9.0000										
1.8485	3100.0	3.1012	0.61950	5006.0	10916	0.027500	0.30020	1.0000	5.0000	10.000										
2.0687	3100.0	3.1007	0.62800	4937.4	9878.3	0.030400	0.30030	1.0000	5.0000	11.000	10238	3.8822e-05	-3.2111e-05		-54.826					
2.2895	3100.0	3.0997	0.63020	4918.6	9667.7	0.031000	0.29970	1.0000	5.0000	12.000	10230	-0.00078808	0.22081		-54.605					
2.5097	3100.0	3.0991	0.63360	4891.3	9684.9	0.031100	0.30120	1.0000	5.0000	13.000	10200	-0.0036935	0.44098	-186.69	-54.385	-186.69				
2.7298	3100.0	3.0996	0.63880	4852.2	10417	0.028800	0.30000	1.0000	5.0000	14.000	10137	-0.0098608	0.66114	-244.91	-54.165	-244.91				
2.9500	3100.0	3.1004	0.64010	4843.6	9970.2	0.030200	0.30110	1.0000	5.0000	15.000	10079	-0.015515	0.88134	-267.66	-53.945	-267.66	-262.92			
3.1702	3100.0	3.1000	0.64580	4800.2	9643.1	0.031100	0.29990	1.0000	5.0000	16.000	10021	-0.021212	1.1015	-298.72	-53.725	-298.72	-285.81			
3.3904	3100.0	3.0998	0.65030	4766.7	9973.3	0.030000	0.29920	1.0000	5.0000	17.000	9963.6	-0.026800	1.3217	-316.62	-53.505	-316.62	-290.28			
3.6106	3100.0	3.0997	0.64950	4772.4	9579.6	0.031400	0.30080	1.0000	5.0000	18.000	9865.9	-0.036340	1.5419	-301.15	-53.284	-301.15	-279.14			
3.8308	3100.0	3.0997	0.65200	4754.1	8955.4	0.033600	0.30090	1.0000	5.0000	19.000	9808.0	-0.041999	1.7621	-267.23	-53.064	-267.24	-258.28			
4.0510	3100.0	3.1003	0.65050	4766.0	10204	0.029400	0.30000	1.0000	5.0000	20.000	9767.1	-0.045999	1.9823	-211.96	-52.844	-211.96	-232.19			
4.2712	3100.0	3.1009	0.65390	4742.2	9509.5	0.031600	0.30050	1.0000	5.0000	21.000	9718.8	-0.050708	2.2025	-194.43	-52.624	-194.43	-205.19			
4.4913	3100.0	3.1005	0.65400	4740.8	10308	0.029200	0.30100	1.0000	5.0000	22.000	9677.2	-0.054779	2.4226	-186.17	-52.404	-186.17	-181.65			
4.7115	3100.0	3.1000	0.65530	4730.7	9476.3	0.031700	0.30040	1.0000	5.0000	23.000	9638.9	-0.058516	2.6428	-166.16	-52.183	-166.16	-164.53			
4.9318	3100.0	3.1005	0.66110	4689.9	10149	0.029500	0.29940	1.0000	5.0000	24.000	9602.1	-0.062116	2.8631	-149.52	-51.963	-149.52	-150.02			
5.1519	3100.0	3.1004	0.66250	4679.8	9451.1	0.031700	0.29960	1.0000	5.0000	25.000	9573.5	-0.064908	3.0832	-126.34	-51.743	-126.34	-139.16			
5.3721	3100.0	3.0990	0.66630	4651.1	9320.9	0.032100	0.29920	1.0000	5.0000	26.000	9545.3	-0.067662	3.3034	-121.93	-51.523	-121.93	-131.32			
5.5922	3100.0	3.1002	0.66920	4632.7	9378.1	0.032000	0.30010	1.0000	5.0000	27.000	9528.2	-0.069328	3.5235	-131.86	-51.303	-131.86	-129.89			
5.8125	3100.0	3.1001	0.66920	4632.5	9470.0	0.031700	0.30020	1.0000	5.0000	28.000	9490.5	-0.073016	3.7438	-126.97	-51.083	-126.97	-130.86			
6.0326	3100.0	3.0996	0.67030	4624.2	9418.2	0.031800	0.29950	1.0000	5.0000	29.000	9455.7	-0.076410	3.9639	-142.34	-50.862	-142.34	-133.92			
6.2528	3100.0	3.1003	0.67010	4626.6	9737.0	0.030800	0.29990	1.0000	5.0000	30.000	9441.7	-0.077775	4.1841	-131.21	-50.642	-131.21	-132.28			
6.4730	3100.0	3.1000	0.67120	4618.6	9904.0	0.030200	0.29910	1.0000	5.0000	31.000	9395.9	-0.082256	4.4043	-137.25	-50.422	-137.25	-132.00			
6.6932	3100.0	3.0999	0.67000	4626.7	9003.0	0.033400	0.30070	1.0000	5.0000	32.000	9375.9	-0.084203	4.6245	-123.66	-50.202	-123.66	-134.37			
6.9133	3100.0	3.1006	0.67170	4616.0	8864.3	0.033900	0.30050	1.0000	5.0000	33.000	9337.5	-0.087954	4.8446	-125.56	-49.982	-125.56	-135.38			
7.1336	3100.0	3.1004	0.67390	4600.7	8911.0	0.033700	0.30030	1.0000	5.0000	34.000	9334.8	-0.088222	5.0649	-154.18	-49.761	-154.18	-134.73			
7.3538	3100.0	3.0993	0.67420	4597.0	9816.4	0.030500	0.29940	1.0000	5.0000	35.000	9278.2	-0.093748	5.2851	-136.26	-49.541	-136.26	-123.36			
7.5740	3100.0	3.1007	0.67450	4597.0	9378.1	0.032000	0.30010	1.0000	5.0000	36.000	9235.8	-0.097887	5.5053	-134.01	-49.321	-134.01	-102.22			
7.7941	3100.0	3.1007	0.67680	4581.4	9284.8	0.032300	0.29990	1.0000	5.0000	37.000	9237.0	-0.097776	5.7254	-66.800	-49.101	-66.800	-80.228			
8.0143	3100.0	3.1000	0.67590	4586.5	9180.4	0.032700	0.30020	1.0000	5.0000	38.000	9207.9	-0.10062	5.9456	-19.839	-48.881	-19.839	-69.969			
8.2345	3100.0	3.0993	0.67850	4567.9	8850.0	0.034000	0.30090	1.0000	5.0000	39.000	9218.7	-0.099565	6.1658	-44.229	-48.660	-44.229	-68.004			
8.4547	3100.0	3.0999	0.68140	4549.3	8661.8	0.034600	0.29970	1.0000	5.0000	40.000	9223.2	-0.099125	6.3860	-84.968	-48.440	-84.968	-77.899			
8.6748	3100.0	3.1007	0.68040	4557.2	9240.7	0.032400	0.29940	1.0000	5.0000	41.000	9180.6	-0.10328	6.6061	-124.19	-48.220	-124.19	-83.162			
8.8950	3100.0	3.1002	0.68130	4550.4	9090.9	0.033000	0.30000	1.0000	5.0000	42.000	9133.3	-0.10790	6.8263	-116.27	-48.000	-116.27	-78.856			
9.1152	3100.0	3.1002	0.68390	4533.1	9501.6	0.031700	0.30120	1.0000	5.0000	43.000	9126.9	-0.10853	7.0465	-46.151	-47.780	-46.151	-68.342			
9.3356	3100.0	3.0999	0.68710	4511.6	9418.7	0.032000	0.30140	1.0000	5.0000	44.000	9122.0	-0.10901	7.2669	-22.702	-47.559	-22.702	-54.693			
9.5558	3100.0	3.0988	0.68350	4533.7	8961.2	0.033500	0.30020	1.0000	5.0000	45.000	9135.5	-0.10769	7.4871	-32.394	-47.339	-32.394	-48.444			
9.7760	3100.0	3.0989	0.68350	4533.9	8561.3	0.035100	0.30050	1.0000	5.0000	46.000	9104.0	-0.11076	7.7073	-55.944	-47.119	-55.944	-51.355			
9.9962	3100.0	3.1003	0.68650	4516.1	9344.7	0.032200	0.30090	1.0000	5.0000	47.000	9100.2	-0.11114	7.9275	-85.027	-46.899	-85.027	-57.821			
10.216	3100.0	3.0994	0.68490	4525.3	8766.8	0.034300	0.30070	1.0000	5.0000	48.000	9078.1	-0.11330	8.1476	-60.706	-46.679	-60.705	-57.891			
10.437	3100.0	3.0997	0.68680	4513.3	9696.8	0.031000	0.30060	1.0000	5.0000	49.000	9054.8	-0.11557	8.3678	-55.033	-46.458	-55.033	-51.475			
10.657	3100.0	3.1002	0.68750	4509.4	9512.7	0.031600	0.30060	1.0000	5.0000	50.000	9059.9	-0.11508	8.5880	-32.748	-46.238	-32.748	-43.836			
10.877	3100.0	3.0997	0.69130	4483.9	8844.1	0.034000	0.30070	1.0000	5.0000	51.000	9048.7	-0.11617	8.8082	-23.862	-46.018	-23.862	-46.785			
11.097	3100.0	3.1002	0.68910	4498.9	8910.7	0.033600	0.29940	1.0000	5.0000	52.000	9045.1	-0.11652	9.0284	-46.833	-45.798	-46.833	-48.231			
11.317	3100.0	3.1012	0.68920	4499.7	8866.9	0.033800	0.29970	1.0000	5.0000	53.000	9036.0	-0.11741	9.2486	-75.449	-45.578	-75.449	-35.167			
11.537	3100.0	3.0999	0.69220	4478.3	8762.5	0.034100	0.29880	1.0000	5.0000	54.000	9014.7	-0.11949	9.4688	-62.264	-45.358	-62.264	-13.681			
11.758	3100.0	3.1000	0.69160	4482.4	9193.8	0.032500	0.29880	1.0000	5.0000	55.000	8980.8	-0.12279	9.6890	32.575	-45.137	32.575	16.194			
11.978	3100.0	3.0991	0.69150	4481.7	9156.0	0.032700	0.29940	1.0000	5.0000	56.000	9004.1	-0.12052	9.9092	83.566	-44.917	83.566	30.611			
12.198	3100.0	3.1002	0.69400	4467.1	9297.2	0.032300	0.30030	1.0000	5.0000	57.000	9077.1	-0.11339	10.129	102.54	-44.697	102.54	15.075			
12.418	3100.0	3.1006	0.69110	4486.5	8820.6	0.034000	0.29990	1.0000	5.0000	58.000	9058.6	-0.11520	10.350	-3.3634	-44.477	-3.3631	-20.131			
12.639	3100.0	3.1004	0.69400	4467.4	8692.8	0.034500	0.29990	1.0000	5.0000	59.000	9066.5	-0.11442	10.570	-139.95	-44.256	-139.95	-59.833			
12.859	3100.0	3.1004	0.69460	4463.6	8955.2	0.033500	0.30000	1.0000	5.0000	60.000	9005.7	-0.12037	10.790	-143.45	-44.036	-143.45	-86.321			
13.080	3100.0	3.1001	0.69540	4458.0	8427.4	0.035800	0.30170	1.0000	5.0000	61.000	8949.4	-0.12587	11.011	-114.95	-43.815	-114.95	-80.038			
13.300	3100.0	3.1012	0.69740	4446.8	9165.1	0.032700	0.29970	1.0000	5.0000	62.000	8959.1	-0.12492	11.231	-29.896	-43.595	-29.895	-51.912			
13.520	3100.0	3.1012	0.69500	4462.2	8899.1	0.033700	0.29990	1.0000	5.0000	63.000	8963.2	-0.12452	11.451	28.052	-43.375	28.052	-31.644			
13.740	3100.0	3.1001	0.69550	4457.4	9054.4	0.033100	0.29970	1.0000	5.0000	64.000	8965.9	-0.12426	11.671	0.68333	-43.155	0.68335	-28.415			
13.960	3100.0	3.1007	0.69970	4431.5	8708.5	0.034300	0.29870	1.0000	5.0000	65.000	8976.9	-0.12318	11.891	-42.115	-42.935	-42.115	-46.956			
14.180	3100.0	3.0997	0.69770	4442.7	9449.7	0.031800	0.30050	1.0000	5.0000	66.000	8953.0	-0.12551	12.112	-98.802	-42.715	-98.802	-78.201			
14.400	3100.0	3.0992	0.69820	4438.8	10094	0.029700	0.29980	1.0000	5.0000	67.000	8923.3	-0.12842	12.332	-122.60	-42.495	-122.60	-103.77			
14.621	3100.0	3.0998	0.70010	4427.7	8955.2	0.033500	0.30000	1.0000	5.0000	68.000	8883.9	-0.13226	12.552	-128.17	-42.274	-128.17	-116.99			
14.841	3100.0	3.0987	0.69880	4434.3	8934.5	0.033600	0.30020	1.0000	5.0000	69.000	8876.5	-0.13299	12.772	-127.14	-42.054	-127.14	-125.43			
15.061	3100.0	3.1003	0.70210	4415.8	8418.5	0.035600	0.29970	1.0000	5.0000	70.000	8835.3	-0.13701	12.992	-108.24	-41.834	-108.24	-124.61			
15.281	3100.0	3.0988	0.69970	4428.8	8330.6	0.036000	0.29990	1.0000	5.0000	71.000	8807.6	-0.13972	13.213	-141.01	-41.614	-141.01	-117.96			
15.501	3100.0	3.0997	0.70210	4414.9	9048.3	0.033100	0.29950	1.0000	5.0000	72.000	8799.2	-0.14054	13.433	-118.49	-41.394	-118.49	-109.53			
15.722	3100.0	3.1009	0.70310	4410.3	8997.0	0.033300	0.29960	1.0000	5.0000	73.000	8739.3	-0.14639	13.653	-94.929	-41.173	-94.929	-103.38			
15.942	3100.0	3.1005	0.70290	4411.0	8922.4	0.033500	0.29890	1.0000	5.0000	74.000	8739.0	-0.14641	13.873	-85.000	-40.953	-85.000	-109.59			
16.162	3100.0	3.1000	0.70310	4409.0	8994.0	0.033400	0.30040	1.0000	5.0000	75.000	8733.2	-0.14699	14.093	-77.454	-40.733	-77.454	-138.54			
16.382	3100.0	3.0994	0.70330	4406.9	8692.8	0.034500	0.29990	1.0000	2.0000	76.000	8708.7	-0.14938	14.314	-172.08	-40.513	-172.08	-175.55			
16.502	3100.0	3.0993	0.70490	4396.8	8531.2	0.035200	0.30030	1.0000	2.0000	77.000	8672.9	-0.15287	14.434	-263.22	-40.393	-263.22	-186.73			
16.623	3100.0	3.0992	0.70790	4378.0	8470.4	0.035500	0.30070	1.0000	2.0000	78.000	8611.7	-0.15885	14.554	-280.01	-40.272	-280.01	-168.65			
16.743	3100.0	3.1015	0.71150	4359.1	8664.7	0.034600	0.29980	1.0000	2.0000	79.000	8591.1	-0.16086	14.674	-140.89	-40.152	-140.89	-135.33			
16.863	3100.0	3.1002	0.71440	4339.6	7828.1	0.038400	0.30060	1.0000	2.0000	80.000	8581.3	-0.16182	14.794	12.948	-40.032	12.948	-102.02			
16.983	3100.0	3.0998	0.71660	4325.7	8373.3	0.035900	0.30060	1.0000	2.0000	81.000	8603.4	-0.15966	14.914	-5.4988	-39.912	-5.4990	-79.979			
17.103	3100.0	3.1005	0.71530	4334.5	8250.7	0.036300	0.29950	1.0000	2.0000	82.000	8613.3	-0.15869	15.035	-96.647	-39.792	-96.647	-82.895			
17.224	3100.0	3.0991	0.71790	4316.9	7907.4	0.037800	0.29890	1.0000	2.0000	83.000	8571.8	-0.16275	15.155	-169.81	-39.671	-169.81	-104.58			
17.344	3100.0	3.1003	0.71890	4312.6	8893.2	0.033700	0.29970	1.0000	2.0000	84.000	8539.0	-0.16595	15.275	-155.47	-39.551	-155.47	-108.74			
17.464	3100.0	3.0994	0.72050	4301.7	8931.5	0.033600	0.30010	1.0000	2.0000	85.000	8538.5	-0.16600	15.395	-95.464	-39.431	-95.464	-93.761			
17.584	3100.0	3.0999	0.72060	4301.8	8194.0	0.036600	0.29990	1.0000	2.0000	86.000	8536.5	-0.16619	15.515	-26.301	-39.311	-26.300	-64.528			
17.704	3100.0	3.1005	0.71990	4306.8	8698.6	0.034500	0.30010	1.0000	2.0000	87.000	8515.7	-0.16823	15.636	-21.764	-39.191	-21.763	-25.208			
17.825	3100.0	3.0997	0.72150	4296.2	8808.8	0.034000	0.29950	1.0000	2.0000	88.000	8534.6	-0.16638	15.757	-23.641	-39.070	-23.641	7.2618			
17.945	3100.0	3.1000	0.72290	4288.3	8522.7	0.035200	0.30000	1.0000	2.0000	89.000	8526.3	-0.16719	15.877	41.130	-38.950	41.130	34.254			
18.066	3100.0	3.0993	0.72310	4286.1	8729.7	0.034400	0.30030	1.0000	2.0000	90.000	8516.9	-0.16811	15.997	66.883	-38.829	66.884	58.117			
18.186	3100.0	3.0998	0.72780	4259.1	8882.0	0.033900	0.30110	1.0000	2.0000	91.000	8549.3	-0.16495	16.117	108.66	-38.709	108.66	69.638			
18.306	3100.0	3.1003	0.72890	4253.4	8538.5	0.035100	0.29970	1.0000	2.0000	92.000	8563.3	-0.16357	16.237	97.548	-38.589	97.548	57.232			
18.426	3100.0	3.1005	0.72620	4269.5	8176.6	0.036800	0.30090	1.0000	2.0000	93.000	8568.4	-0.16308	16.357	33.966	-38.469	33.966	34.891			
18.546	3100.0	3.1000	0.72800	4258.2	8309.4	0.036200	0.30080	1.0000	2.0000	94.000	8566.0	-0.16332	16.478	-20.898	-38.349	-20.898	1.9209			
18.667	3100.0	3.1002	0.72770	4260.3	8910.7	0.033600	0.29940	1.0000	2.0000	95.000	8568.3	-0.16308	16.598	-44.823	-38.228	-44.823	-37.680			
18.787	3100.0	3.1010	0.73140	4239.8	8952.2	0.033500	0.29990	1.0000	2.0000	96.000	8550.8	-0.16480	16.718	-56.189	-38.108	-56.189	-59.501			
18.907	3100.0	3.1011	0.73200	4236.5	8255.5	0.036400	0.30050	1.0000	2.0000	97.000	8549.1	-0.16497	16.838	-100.46	-37.988	-100.46	-74.066			
19.027	3100.0	3.1007	0.72950	4250.4	8928.6	0.033600	0.30000	1.0000	2.0000	98.000	8541.8	-0.16567	16.958	-75.137	-37.868	-75.137	-82.247			
19.147	3100.0	3.1007	0.73050	4244.6	8296.4	0.036100	0.29950	1.0000	2.0000	99.000	8512.5	-0.16854	17.079	-93.727	-37.748	-93.726	-84.924			
19.267	3100.0	3.1008	0.73170	4237.8	8467.6	0.035500	0.30060	1.0000	2.0000	100.00	8523.9	-0.16742	17.199	-85.724	-37.628	-85.724	-83.526			
19.388	3100.0	3.0991	0.73050	4242.4	8507.1	0.035300	0.30030	1.0000	2.0000	101.00	8501.7	-0.16959	17.319	-69.575	-37.507	-69.575	-87.326			
19.508	3100.0	3.0992	0.73170	4235.6	8668.6	0.034700	0.30080	1.0000	2.0000	102.00	8495.7	-0.17018	17.439	-93.468	-37.387	-93.469	-103.17			
19.628	3100.0	3.1003	0.73570	4214.1	8357.5	0.035800	0.29920	1.0000	2.0000	103.00	8484.8	-0.17125	17.559	-94.135	-37.267	-94.135	-135.65			
19.748	3100.0	3.1000	0.73740	4204.0	7856.0	0.038200	0.30010	1.0000	2.0000	104.00	8476.2	-0.17208	17.679	-172.93	-37.147	-172.93	-170.67			
19.868	3100.0	3.1007	0.73850	4198.6	8943.3	0.033500	0.29960	1.0000	2.0000	105.00	8454.9	-0.17417	17.800	-248.15	-37.027	-248.15	-194.41			
19.989	3100.0	3.0996	0.73570	4213.1	8562.9	0.035000	0.29970	1.0000	2.0000	106.00	8406.7	-0.17887	17.920	-244.67	-36.906	-244.67	-201.98			
20.109	3100.0	3.1000	0.73800	4200.5	8157.6	0.036800	0.30020	1.0000	2.0000	107.00	8370.3	-0.18242	18.040	-212.19	-36.786	-212.19	-189.10			
20.229	3100.0	3.1007	0.73600	4212.9	8547.0	0.035100	0.30000	1.0000	2.0000	108.00	8371.4	-0.18232	18.160	-131.96	-36.666	-131.96	-166.09			
20.349	3100.0	3.0994	0.74250	4174.3	8191.8	0.036500	0.29900	1.0000	2.0000	109.00	8345.0	-0.18490	18.281	-108.51	-36.546	-108.51	-151.16			
20.469	3100.0	3.1009	0.74020	4189.3	8763.8	0.034300	0.30060	1.0000	2.0000	110.00	8340.1	-0.18538	18.401	-133.11	-36.426	-133.11	-149.22			
20.590	3100.0	3.0996	0.73840	4197.7	8262.4	0.036200	0.29910	1.0000	2.0000	111.00	8320.8	-0.18726	18.521	-170.05	-36.305	-170.05	-144.15			
20.710	3100.0	3.1006	0.74010	4189.4	8756.5	0.034500	0.30210	1.0000	2.0000	112.00	8303.5	-0.18895	18.641	-202.45	-36.185	-202.45	-133.50			
20.830	3100.0	3.0994	0.74230	4175.4	8308.5	0.036300	0.30160	1.0000	2.0000	113.00	8261.1	-0.19310	18.761	-106.61	-36.065	-106.61	-116.44			
20.950	3100.0	3.0988	0.74280	4171.8	7997.3	0.037600	0.30070	1.0000	2.0000	114.00	8248.3	-0.19435	18.882	-55.255	-35.945	-55.255	-107.32			
21.070	3100.0	3.1008	0.74210	4178.4	7860.5	0.038000	0.29870	1.0000	2.0000	115.00	8284.3	-0.19083	19.002	-47.855	-35.825	-47.854	-112.70			
21.191	3100.0	3.0992	0.74320	4170.1	7900.0	0.038000	0.30020	1.0000	2.0000	116.00	8258.7	-0.19333	19.122	-124.45	-35.704	-124.45	-124.32			
21.311	3100.0	3.0988	0.74370	4166.7	8188.0	0.036700	0.30050	1.0000	2.0000	117.00	8227.1	-0.19641	19.242	-229.30	-35.584	-229.31	-131.41			
21.431	3100.0	3.1002	0.74540	4159.1	8278.2	0.036300	0.30050	1.0000	2.0000	118.00	8202.1	-0.19886	19.363	-164.72	-35.464	-164.72	-136.30			
21.551	3100.0	3.1017	0.74680	4153.3	8373.3	0.035900	0.30060	1.0000	2.0000	119.00	8174.8	-0.20153	19.483	-90.735	-35.344	-90.735	-134.76			
21.672	3100.0	3.1001	0.74550	4158.4	8194.0	0.036600	0.29990	1.0000	2.0000	120.00	8185.8	-0.20045	19.603	-72.260	-35.223	-72.260	-120.88			
21.792	3100.0	3.0993	0.74640	4152.3	8062.0	0.037100	0.29910	1.0000	2.0000	121.00	8180.7	-0.20095	19.723	-116.78	-35.103	-116.78	-111.16			
21.912	3100.0	3.1013	0.74990	4135.6	8144.4	0.036700	0.29890	1.0000	2.0000	122.00	8155.7	-0.20339	19.843	-159.89	-34.983	-159.89	-97.346			
22.032	3100.0	3.1000	0.74790	4144.9	7777.2	0.038600	0.30020	1.0000	2.0000	123.00	8119.7	-0.20691	19.963	-116.15	-34.863	-116.15	-77.450			
22.152	3100.0	3.1002	0.74870	4140.8	8088.9	0.037100	0.30010	1.0000	2.0000	124.00	8120.3	-0.20685	20.084	-21.643	-34.743	-21.644	-58.477			
22.273	3100.0	3.0983	0.74820	4141.0	8613.2	0.034900	0.30060	1.0000	2.0000	125.00	8128.6	-0.20603	20.204	27.220	-34.622	27.220	-42.768			
22.393	3100.0	3.1005	0.74850	4142.3	8404.5	0.035600	0.29920	1.0000	2.0000	126.00	8138.2	-0.20510	20.324	-21.916	-34.502	-21.917	-53.045			
22.513	3100.0	3.1009	0.74880	4141.2	7900.0	0.038000	0.30020	1.0000	2.0000	127.00	8127.1	-0.20619	20.444	-81.350	-34.382	-81.350	-85.146			
22.633	3100.0	3.0997	0.75030	4131.3	7632.0	0.039400	0.30070	1.0000	2.0000	128.00	8107.9	-0.20806	20.564	-167.54	-34.262	-167.54	-120.81			
22.753	3100.0	3.0996	0.75110	4126.7	7973.5	0.037700	0.30060	1.0000	2.0000	129.00	8094.9	-0.20933	20.685	-182.15	-34.142	-182.15	-141.40			
22.873	3100.0	3.0996	0.75060	4129.5	8424.2	0.035600	0.29990	1.0000	2.0000	130.00	8053.6	-0.21336	20.805	-151.10	-34.022	-151.10	-134.75			
22.994	3100.0	3.1007	0.75260	4120.0	8656.1	0.034600	0.29950	1.0000	2.0000	131.00	8044.8	-0.21423	20.925	-124.87	-33.901	-124.87	-107.86			
23.114	3100.0	3.1010	0.75390	4113.3	7737.1	0.038800	0.30020	1.0000	2.0000	132.00	8042.2	-0.21448	21.045	-48.084	-33.781	-48.084	-82.035			
23.234	3100.0	3.1006	0.75070	4130.3	8000.0	0.037600	0.30080	1.0000	2.0000	133.00	8025.6	-0.21610	21.165	-33.102	-33.661	-33.102	-75.923			
23.354	3100.0	3.1004	0.75490	4107.0	8321.3	0.036100	0.30040	1.0000	2.0000	134.00	8034.3	-0.21525	21.285	-53.022	-33.541	-53.022	-90.502			
23.474	3100.0	3.0996	0.75260	4118.5	8172.6	0.036500	0.29830	1.0000	2.0000	135.00	8028.8	-0.21578	21.406	-120.54	-33.421	-120.54	-112.94			
23.594	3100.0	3.1013	0.75450	4110.4	8061.8	0.037200	0.29990	1.0000	2.0000	136.00	8008.7	-0.21775	21.526	-197.77	-33.300	-197.77	-123.56			
23.715	3100.0	3.1006	0.75670	4097.5	7665.8	0.039200	0.30050	1.0000	2.0000	137.00	7965.9	-0.22192	21.646	-160.27	-33.180	-160.27	-121.43			
23.835	3100.0	3.0994	0.75510	4104.6	7785.5	0.038700	0.30130	1.0000	2.0000	138.00	7946.9	-0.22379	21.766	-86.204	-33.060	-86.204	-122.22			
23.955	3100.0	3.0994	0.75720	4093.2	8005.3	0.037400	0.29940	1.0000	2.0000	139.00	7963.4	-0.22217	21.886	-42.394	-32.940	-42.394	-113.75			
24.075	3100.0	3.0988	0.75730	4091.9	7506.3	0.039900	0.29950	1.0000	2.0000	140.00	7958.2	-0.22268	22.007	-124.45	-32.820	-124.45	-112.03			
24.195	3100.0	3.0991	0.76010	4077.2	8008.0	0.037400	0.29950	1.0000	2.0000	141.00	7934.8	-0.22496	22.127	-155.44	-32.700	-155.44	-117.30			
24.316	3100.0	3.1000	0.75940	4082.2	8008.0	0.037500	0.30030	1.0000	2.0000	142.00	7886.4	-0.22970	22.247	-151.68	-32.579	-151.68	-124.75			
24.436	3100.0	3.0984	0.76130	4069.9	7795.9	0.038700	0.30170	1.0000	2.0000	143.00	7905.9	-0.22779	22.367	-112.54	-32.459	-112.54	-122.31			
24.556	3100.0	3.0983	0.76050	4074.0	7960.2	0.037700	0.30010	1.0000	2.0000	144.00	7881.5	-0.23018	22.488	-79.628	-32.339	-79.627	-99.303			
24.677	3100.0	3.0995	0.76050	4075.6	7973.5	0.037700	0.30060	1.0000	2.0000	145.00	7869.6	-0.23133	22.608	-112.26	-32.218	-112.26	-72.108			
24.797	3100.0	3.1007	0.76320	4062.8	8191.3	0.036600	0.29980	1.0000	2.0000	146.00	7856.6	-0.23260	22.728	-40.418	-32.098	-40.418	-54.681			
24.917	3100.0	3.1007	0.76440	4056.4	7506.3	0.039900	0.29950	1.0000	2.0000	147.00	7850.8	-0.23317	22.848	-15.700	-31.978	-15.700	-43.583			
25.037	3100.0	3.0992	0.75960	4080.0	7500.0	0.040000	0.30000	1.0000	2.0000	148.00	7866.6	-0.23163	22.969	-25.402	-31.858	-25.402	-32.395			
25.158	3100.0	3.1009	0.76450	4056.1	7978.7	0.037600	0.30000	1.0000	2.0000	149.00	7855.2	-0.23274	23.089	-24.136	-31.737	-24.136	-35.556			
25.278	3100.0	3.0999	0.76130	4071.9	7863.5	0.038100	0.29960	1.0000	2.0000	150.00	7839.1	-0.23431	23.209	-56.321	-31.617	-56.321	-46.869			
25.398	3100.0	3.1009	0.76170	4071.0	7933.9	0.037800	0.29990	1.0000	2.0000	151.00	7850.0	-0.23325	23.329	-56.220	-31.497	-56.220	-61.268			
25.518	3100.0	3.0998	0.76360	4059.5	7638.7	0.039300	0.30020	1.0000	2.0000	152.00	7835.3	-0.23468	23.450	-72.264	-31.377	-72.264	-72.615			
25.638	3100.0	3.1012	0.76210	4069.3	8146.3	0.036900	0.30060	1.0000	2.0000	153.00	7823.3	-0.23586	23.570	-97.400	-31.257	-97.400	-81.003			
25.759	3100.0	3.1007	0.76280	4064.9	7487.6	0.040200	0.30100	1.0000	2.0000	154.00	7809.0	-0.23725	23.690	-80.869	-31.136	-80.869	-82.686			
25.879	3100.0	3.1003	0.76450	4055.3	8072.4	0.037300	0.30110	1.0000	2.0000	155.00	7804.6	-0.23769	23.810	-98.264	-31.016	-98.264	-72.545			
25.999	3100.0	3.1005	0.76800	4037.1	7900.0	0.038000	0.30020	1.0000	2.0000	156.00	7796.1	-0.23852	23.930	-64.636	-30.896	-64.636	-51.017			
26.119	3100.0	3.1009	0.76430	4057.2	7939.2	0.037800	0.30010	1.0000	2.0000	157.00	7770.7	-0.24099	24.051	-21.558	-30.776	-21.558	-34.391			
26.240	3100.0	3.1005	0.76540	4050.8	7997.3	0.037400	0.29910	1.0000	2.0000	158.00	7787.1	-0.23939	24.171	10.244	-30.655	10.244	-32.228			
26.360	3100.0	3.0993	0.76680	4041.9	7546.6	0.039700	0.29960	1.0000	2.0000	159.00	7796.1	-0.23851	24.291	2.2610	-30.535	2.2610	-42.213			
26.480	3100.0	3.1001	0.76700	4041.9	7668.4	0.039200	0.30060	1.0000	2.0000	160.00	7789.5	-0.23916	24.411	-87.451	-30.415	-87.451	-66.239			
26.600	3100.0	3.0988	0.76800	4034.9	7733.9	0.038700	0.29930	1.0000	2.0000	161.00	7770.9	-0.24098	24.531	-114.56	-30.295	-114.56	-89.938			
26.720	3100.0	3.1002	0.76640	4045.1	7700.0	0.039000	0.30030	1.0000	2.0000	162.00	7747.2	-0.24329	24.651	-141.69	-30.175	-141.69	-104.18			
26.840	3100.0	3.1004	0.76910	4031.2	7755.8	0.038500	0.29860	1.0000	2.0000	163.00	7748.4	-0.24317	24.772	-108.25	-30.055	-108.25	-101.72			
26.961	3100.0	3.0992	0.76960	4027.0	7496.2	0.039900	0.29910	1.0000	2.0000	164.00	7715.6	-0.24638	24.892	-68.960	-29.934	-68.960	-88.994			
27.081	3100.0	3.0997	0.77090	4020.9	7866.5	0.038200	0.30050	1.0000	2.0000	165.00	7721.6	-0.24579	25.012	-75.164	-29.814	-75.164	-77.080			
27.201	3100.0	3.0997	0.77280	4011.0	7794.8	0.038500	0.30010	1.0000	2.0000	166.00	7719.2	-0.24603	25.132	-50.902	-29.694	-50.902	-67.075			
27.321	3100.0	3.0992	0.77220	4013.5	7659.0	0.039000	0.29870	1.0000	2.0000	167.00	7701.5	-0.24775	25.252	-82.122	-29.574	-82.122	-61.033			
27.441	3100.0	3.1007	0.77200	4016.5	7850.4	0.038100	0.29910	1.0000	2.0000	168.00	7695.1	-0.24838	25.373	-58.229	-29.454	-58.229	-49.503			
27.562	3100.0	3.1009	0.77090	4022.4	7688.9	0.038900	0.29910	1.0000	2.0000	169.00	7684.3	-0.24943	25.493	-38.750	-29.333	-38.750	-37.991			
27.682	3100.0	3.1008	0.76960	4029.1	7840.7	0.038300	0.30030	1.0000	2.0000	170.00	7692.8	-0.24861	25.613	-17.512	-29.213	-17.512	-24.276			
27.802	3100.0	3.1010	0.77560	3998.2	7471.5	0.040300	0.30110	1.0000	2.0000	171.00	7679.3	-0.24992	25.733	6.6595	-29.093	6.6595	-13.810			
27.922	3100.0	3.1010	0.77480	4002.3	7436.7	0.040300	0.29970	1.0000	2.0000	172.00	7687.0	-0.24917	25.853	-13.548	-28.973	-13.548	-16.062			
28.042	3100.0	3.0995	0.77200	4014.9	7665.0	0.039100	0.29970	1.0000	2.0000	173.00	7691.2	-0.24876	25.974	-5.8996	-28.853	-5.8996	-31.991			
28.163	3100.0	3.1005	0.77500	4000.6	7456.6	0.040300	0.30050	1.0000	2.0000	174.00	7678.7	-0.24998	26.094	-50.012	-28.732	-50.012	-53.254			
28.283	3100.0	3.1004	0.77620	3994.3	7613.6	0.039600	0.30150	1.0000	2.0000	175.00	7680.0	-0.24986	26.214	-97.153	-28.612	-97.153	-76.909			
28.403	3100.0	3.1005	0.77670	3991.9	8021.3	0.037500	0.30080	1.0000	2.0000	176.00	7662.6	-0.25156	26.334	-99.655	-28.492	-99.655	-103.36			
28.523	3100.0	3.1001	0.77570	3996.5	7528.8	0.039900	0.30040	1.0000	2.0000	177.00	7640.9	-0.25368	26.454	-131.82	-28.372	-131.82	-115.82			
28.643	3100.0	3.0997	0.77490	4000.1	7804.2	0.038300	0.29890	1.0000	2.0000	178.00	7638.4	-0.25392	26.575	-138.16	-28.252	-138.16	-108.45			
28.763	3100.0	3.0997	0.77410	4004.3	7771.4	0.038500	0.29920	1.0000	2.0000	179.00	7612.9	-0.25641	26.695	-112.32	-28.132	-112.32	-82.231			
28.884	3100.0	3.0991	0.77850	3980.9	7724.2	0.038800	0.29970	1.0000	2.0000	180.00	7593.6	-0.25830	26.815	-60.292	-28.011	-60.292	-43.004			
29.004	3100.0	3.1008	0.77590	3996.4	7386.7	0.040600	0.29990	1.0000	2.0000	181.00	7595.8	-0.25808	26.935	31.432	-27.891	31.432	-10.068			
29.124	3100.0	3.1001	0.77570	3996.5	7894.7	0.038000	0.30000	1.0000	2.0000	182.00	7610.7	-0.25662	27.055	64.310	-27.771	64.310	4.4872			
29.244	3100.0	3.1009	0.77880	3981.6	7787.6	0.038600	0.30060	1.0000	2.0000	183.00	7623.2	-0.25540	27.175	26.526	-27.651	26.526	-7.4832			
29.364	3100.0	3.1018	0.77800	3986.9	7493.8	0.040100	0.30050	1.0000	2.0000	184.00	7618.5	-0.25586	27.296	-39.541	-27.531	-39.541	-37.964			
29.484	3100.0	3.0996	0.77650	3991.8	7522.6	0.039800	0.29940	1.0000	2.0000	185.00	7607.8	-0.25691	27.416	-120.14	-27.411	-120.14	-78.341			
29.605	3100.0	3.1001	0.78020	3973.5	7501.3	0.039900	0.29930	1.0000	2.0000	186.00	7594.6	-0.25819	27.536	-120.97	-27.290	-120.97	-113.26			
29.725	3100.0	3.0992	0.78140	3966.2	7339.0	0.041000	0.30090	1.0000	2.0000	187.00	7562.9	-0.26129	27.656	-137.58	-27.170	-137.58	-133.33			
29.845	3100.0	3.1015	0.77980	3977.3	7606.6	0.039400	0.29970	1.0000	2.0000	188.00	7568.3	-0.26077	27.776	-148.05	-27.050	-148.05	-137.96			
29.965	3100.0	3.0989	0.78070	3969.4	7314.6	0.041000	0.29990	1.0000	2.0000	189.00	7538.3	-0.26369	27.896	-139.89	-26.930	-139.89	-131.70			
30.085	3100.0	3.1010	0.78090	3971.1	7284.0	0.041200	0.30010	1.0000	2.0000	190.00	7518.0	-0.26568	28.017	-143.32	-26.810	-143.32	-121.29			
30.205	3100.0	3.1001	0.77800	3984.7	7887.1	0.038100	0.30050	1.0000	2.0000	191.00	7504.0	-0.26704	28.137	-89.648	-26.690	-89.648	-112.83			
30.326	3100.0	3.1000	0.78530	3947.5	7784.4	0.038500	0.29970	1.0000	2.0000	192.00	7499.3	-0.26750	28.257	-85.526	-26.569	-85.526	-109.95			
30.446	3100.0	3.1004	0.78370	3956.1	7699.2	0.038900	0.29950	1.0000	2.0000	193.00	7493.8	-0.26804	28.377	-105.78	-26.449	-105.78	-103.85			
30.566	3100.0	3.1010	0.78200	3965.5	7566.8	0.039700	0.30040	1.0000	2.0000	194.00	7471.7	-0.27020	28.497	-125.50	-26.329	-125.50	-99.695			
30.686	3100.0	3.1002	0.78290	3959.9	7231.9	0.041400	0.29940	1.0000	2.0000	195.00	7454.3	-0.27190	28.617	-112.79	-26.209	-112.79	-95.107			
30.806	3100.0	3.0993	0.78180	3964.3	7336.6	0.041000	0.30080	1.0000	2.0000	196.00	7443.6	-0.27294	28.738	-68.884	-26.089	-68.884	-80.904			
30.926	3100.0	3.0999	0.78420	3952.9	7356.3	0.040700	0.29940	1.0000	2.0000	197.00	7440.0	-0.27329	28.858	-62.586	-25.969	-62.586	-64.650			
31.047	3100.0	3.0998	0.78660	3940.8	7640.3	0.039200	0.29950	1.0000	2.0000	198.00	7437.4	-0.27355	28.978	-34.763	-25.848	-34.763	-58.098			
31.167	3100.0	3.1009	0.78750	3937.7	7175.5	0.041600	0.29850	1.0000	2.0000	199.00	7419.8	-0.27527	29.098	-44.225	-25.728	-44.225	-68.309			
31.287	3100.0	3.1003	0.78660	3941.4	7344.0	0.040700	0.29890	1.0000	2.0000	200.00	7432.9	-0.27399	29.218	-80.035	-25.608	-80.035	-86.558			
31.407	3100.0	3.0999	0.78680	3939.9	7431.8	0.040300	0.29950	1.0000	2.0000	201.00	7415.7	-0.27566	29.338	-119.94	-25.488	-119.94	-107.08			
31.527	3100.0	3.1005	0.78690	3940.1	7287.1	0.041100	0.29950	1.0000	2.0000	202.00	7391.4	-0.27805	29.459	-153.83	-25.368	-153.83	-122.90			
31.647	3100.0	3.1002	0.78760	3936.3	7779.2	0.038500	0.29950	1.0000	2.0000	203.00	7368.5	-0.28028	29.579	-137.37	-25.248	-137.37	-125.58			
31.768	3100.0	3.0997	0.78600	3943.6	7323.6	0.041100	0.30100	1.0000	2.0000	204.00	7364.1	-0.28071	29.699	-123.32	-25.127	-123.32	-113.20			
31.888	3100.0	3.1001	0.78790	3934.6	7128.0	0.042200	0.30080	1.0000	2.0000	205.00	7346.8	-0.28239	29.819	-93.416	-25.007	-93.416	-88.816			
32.008	3100.0	3.0994	0.78680	3939.2	7299.3	0.041100	0.30000	1.0000	2.0000	206.00	7328.1	-0.28423	29.939	-58.041	-24.887	-58.041	-54.695			
32.128	3100.0	3.0997	0.78890	3929.1	7425.7	0.040400	0.30000	1.0000	2.0000	207.00	7330.4	-0.28401	30.059	-31.931	-24.767	-31.931	-21.377			
32.248	3100.0	3.1002	0.79290	3910.0	7284.0	0.041200	0.30010	1.0000	2.0000	208.00	7337.4	-0.28331	30.180	33.237	-24.647	33.237	4.7479			
32.369	3100.0	3.1000	0.79080	3920.1	7236.1	0.041500	0.30030	1.0000	2.0000	209.00	7323.0	-0.28473	30.300	43.265	-24.526	43.265	30.014			
32.489	3100.0	3.0996	0.78900	3928.5	7589.9	0.039500	0.29980	1.0000	2.0000	210.00	7351.7	-0.28192	30.420	37.209	-24.406	37.209	37.007			
32.609	3100.0	3.1006	0.79020	3923.8	6924.0	0.043400	0.30050	1.0000	2.0000	211.00	7349.2	-0.28217	30.540	68.291	-24.286	68.291	28.568			
32.729	3100.0	3.0999	0.79060	3920.9	7375.0	0.040800	0.30090	1.0000	2.0000	212.00	7346.7	-0.28241	30.660	3.0323	-24.166	3.0323	17.306			
32.849	3100.0	3.1002	0.79120	3918.4	7304.1	0.041100	0.30020	1.0000	2.0000	213.00	7366.5	-0.28047	30.781	-8.9570	-24.046	-8.9570	5.4852			
32.970	3100.0	3.1000	0.79170	3915.6	7606.6	0.039400	0.29970	1.0000	2.0000	214.00	7344.9	-0.28259	30.901	-13.043	-23.925	-13.043	-5.4974			
33.090	3100.0	3.1004	0.79180	3915.6	7204.8	0.041500	0.29900	1.0000	2.0000	215.00	7344.7	-0.28260	31.021	-21.897	-23.805	-21.897	-2.6225			
33.210	3100.0	3.1004	0.79300	3909.7	6837.9	0.043800	0.29950	1.0000	2.0000	216.00	7349.8	-0.28211	31.141	13.378	-23.685	13.378	8.1804			
33.330	3100.0	3.0991	0.79350	3905.6	7384.2	0.040600	0.29980	1.0000	2.0000	217.00	7351.0	-0.28199	31.261	17.407	-23.565	17.407	17.444			
33.450	3100.0	3.1008	0.79740	3888.6	7505.0	0.040000	0.30020	1.0000	2.0000	218.00	7349.8	-0.28211	31.382	45.058	-23.445	45.058	33.109			
33.570	3100.0	3.1000	0.79220	3913.2	7336.6	0.041000	0.30080	1.0000	2.0000	219.00	7355.1	-0.28159	31.502	33.274	-23.325	33.274	44.496			
33.691	3100.0	3.1007	0.79580	3896.3	7779.8	0.038600	0.30030	1.0000	2.0000	220.00	7374.7	-0.27967	31.622	56.427	-23.204	56.427	52.004			
33.811	3100.0	3.1008	0.79490	3900.9	7290.2	0.041000	0.29890	1.0000	2.0000	221.00	7358.5	-0.28126	31.742	70.314	-23.084	70.314	47.836			
33.931	3100.0	3.1001	0.79710	3889.2	7379.0	0.040900	0.30180	1.0000	2.0000	222.00	7382.0	-0.27896	31.862	54.948	-22.964	54.948	37.363			
34.051	3100.0	3.1013	0.79300	3910.8	7704.4	0.038900	0.29970	1.0000	2.0000	223.00	7393.7	-0.27781	31.982	24.219	-22.844	24.219	28.743			
34.171	3100.0	3.0997	0.79590	3894.6	7324.4	0.041000	0.30030	1.0000	2.0000	224.00	7390.1	-0.27817	32.103	-19.095	-22.724	-19.095	21.708			
34.292	3100.0	3.1005	0.79430	3903.4	7319.5	0.041000	0.30010	1.0000	2.0000	225.00	7369.0	-0.28023	32.223	13.327	-22.603	13.327	20.596			
34.412	3100.0	3.1004	0.79690	3890.6	7234.3	0.041400	0.29950	1.0000	2.0000	226.00	7382.9	-0.27887	32.343	35.141	-22.483	35.141	20.157			
34.532	3100.0	3.0996	0.79680	3890.1	7324.4	0.041000	0.30030	1.0000	2.0000	227.00	7405.4	-0.27668	32.463	49.385	-22.363	49.385	14.851			
34.652	3100.0	3.0991	0.79800	3883.6	7401.5	0.040600	0.30050	1.0000	2.0000	228.00	7393.1	-0.27788	32.584	22.026	-22.243	22.026	4.9486			
34.773	3100.0	3.1001	0.79960	3877.1	7396.0	0.040400	0.29880	1.0000	2.0000	229.00	7393.6	-0.27783	32.704	-45.625	-22.122	-45.625	-11.639			
34.893	3100.0	3.0986	0.79740	3885.9	7648.0	0.039200	0.29980	1.0000	2.0000	230.00	7402.0	-0.27700	32.824	-36.185	-22.002	-36.185	-45.576			
35.013	3100.0	3.0990	0.79960	3875.7	7248.2	0.041500	0.30080	1.0000	2.0000	231.00	7373.4	-0.27980	32.944	-47.796	-21.882	-47.796	-77.654			
35.133	3100.0	3.1004	0.79940	3878.4	7418.7	0.040600	0.30120	1.0000	2.0000	232.00	7381.4	-0.27902	33.065	-120.30	-21.762	-120.30	-104.05			
35.254	3100.0	3.1005	0.79930	3879.0	7620.9	0.039300	0.29950	1.0000	2.0000	233.00	7375.2	-0.27962	33.185	-138.36	-21.641	-138.36	-123.94			
35.374	3100.0	3.0998	0.80320	3859.3	7228.4	0.041600	0.30070	1.0000	2.0000	234.00	7328.9	-0.28415	33.305	-177.59	-21.521	-177.59	-127.23			
35.494	3100.0	3.0999	0.79930	3878.3	7162.7	0.041800	0.29940	1.0000	2.0000	235.00	7316.5	-0.28535	33.425	-135.62	-21.401	-135.62	-118.37			
35.614	3100.0	3.0999	0.80390	3856.1	7497.5	0.040000	0.29990	1.0000	2.0000	236.00	7304.0	-0.28658	33.545	-64.287	-21.281	-64.287	-109.67			
35.734	3100.0	3.0996	0.79800	3884.2	7309.0	0.041100	0.30040	1.0000	2.0000	237.00	7306.2	-0.28637	33.665	-75.959	-21.161	-75.959	-99.107			
35.854	3100.0	3.0996	0.80130	3868.2	7126.2	0.042000	0.29930	1.0000	2.0000	238.00	7295.4	-0.28742	33.786	-94.893	-21.041	-94.893	-96.953			
35.974	3100.0	3.1008	0.80460	3853.8	7516.3	0.039900	0.29990	1.0000	2.0000	239.00	7275.2	-0.28939	33.906	-124.77	-20.921	-124.77	-100.36			
36.095	3100.0	3.1006	0.79960	3877.7	7513.8	0.039900	0.29980	1.0000	2.0000	240.00	7262.5	-0.29064	34.026	-124.86	-20.800	-124.86	-102.65			
36.215	3100.0	3.0999	0.80410	3855.1	7179.0	0.041900	0.30080	1.0000	2.0000	241.00	7247.6	-0.29208	34.146	-81.300	-20.680	-81.300	-95.636			
36.335	3100.0	3.0998	0.80300	3860.3	7457.5	0.040000	0.29830	1.0000	2.0000	242.00	7234.2	-0.29340	34.266	-87.431	-20.560	-87.431	-67.825			
36.455	3100.0	3.0999	0.80280	3861.4	7248.8	0.041400	0.30010	1.0000	2.0000	243.00	7240.5	-0.29278	34.387	-59.823	-20.440	-59.823	-36.127			
36.575	3100.0	3.0998	0.80360	3857.4	6730.9	0.044600	0.30020	1.0000	2.0000	244.00	7213.5	-0.29542	34.507	14.288	-20.320	14.288	-7.8004			
36.696	3100.0	3.1012	0.80250	3864.4	7066.0	0.042400	0.29960	1.0000	2.0000	245.00	7222.0	-0.29459	34.627	33.633	-20.199	33.633	13.314			
36.816	3100.0	3.1017	0.80590	3848.7	7056.3	0.042600	0.30060	1.0000	2.0000	246.00	7252.0	-0.29166	34.747	60.331	-20.079	60.331	14.036			
36.936	3100.0	3.1013	0.80470	3854.0	7279.1	0.041200	0.29990	1.0000	2.0000	247.00	7241.5	-0.29269	34.867	18.143	-19.959	18.143	-2.4306			
37.056	3100.0	3.0990	0.80480	3850.6	7099.3	0.042300	0.30030	1.0000	2.0000	248.00	7240.0	-0.29283	34.988	-56.214	-19.839	-56.214	-25.635			
37.176	3100.0	3.0998	0.80590	3846.4	6976.7	0.043000	0.30000	1.0000	2.0000	249.00	7238.9	-0.29294	35.108	-68.047	-19.719	-68.047	-54.104			
37.297	3100.0	3.1005	0.80600	3846.8	7128.6	0.042000	0.29940	1.0000	2.0000	250.00	7219.5	-0.29484	35.228	-82.389	-19.598	-82.389	-72.950			
37.417	3100.0	3.1004	0.80580	3847.6	7336.6	0.041000	0.30080	1.0000	2.0000	251.00	7210.8	-0.29568	35.348	-82.013	-19.478	-82.013	-67.351			
37.537	3100.0	3.1007	0.80880	3833.7	6965.2	0.043100	0.30020	1.0000	2.0000	252.00	7204.5	-0.29629	35.468	-76.087	-19.358	-76.087	-46.060			
37.657	3100.0	3.0983	0.80620	3843.1	7551.6	0.039700	0.29980	1.0000	2.0000	253.00	7197.1	-0.29702	35.588	-28.220	-19.238	-28.220	-9.3202			
37.777	3100.0	3.1006	0.80770	3838.8	7054.0	0.042600	0.30050	1.0000	2.0000	254.00	7180.6	-0.29863	35.709	38.411	-19.118	38.411	34.621			
37.898	3100.0	3.1004	0.80780	3838.1	7407.4	0.040500	0.30000	1.0000	2.0000	255.00	7205.8	-0.29617	35.829	101.31	-18.997	101.31	74.611			
38.018	3100.0	3.1000	0.80870	3833.3	7791.7	0.038400	0.29920	1.0000	2.0000	256.00	7223.3	-0.29447	35.949	137.69	-18.877	137.69	103.72			
38.138	3100.0	3.0993	0.80760	3837.7	7276.7	0.041200	0.29980	1.0000	2.0000	257.00	7236.7	-0.29315	36.069	123.86	-18.757	123.86	112.96			
38.258	3100.0	3.0992	0.80870	3832.3	7279.1	0.041200	0.29990	1.0000	2.0000	258.00	7248.0	-0.29205	36.190	117.31	-18.637	117.31	104.98			
38.378	3100.0	3.0994	0.80730	3839.2	7102.1	0.042100	0.29900	1.0000	2.0000	259.00	7267.9	-0.29011	36.310	84.647	-18.517	84.647	84.400			
38.499	3100.0	3.0993	0.81010	3825.8	7108.5	0.042400	0.30140	1.0000	2.0000	260.00	7278.1	-0.28911	36.430	61.385	-18.396	61.385	54.158			
38.619	3100.0	3.0993	0.80940	3829.1	7332.5	0.040900	0.29990	1.0000	2.0000	261.00	7272.5	-0.28966	36.550	34.797	-18.276	34.797	24.312			
38.739	3100.0	3.1013	0.81090	3824.5	7046.7	0.042800	0.30160	1.0000	2.0000	262.00	7282.6	-0.28867	36.670	-27.349	-18.156	-27.349	-7.2827			
38.859	3100.0	3.0993	0.80890	3831.5	7300.7	0.040900	0.29860	1.0000	2.0000	263.00	7286.6	-0.28828	36.790	-31.921	-18.036	-31.921	-38.915			
38.979	3100.0	3.1000	0.81030	3825.7	6903.7	0.043600	0.30100	1.0000	2.0000	264.00	7254.6	-0.29140	36.911	-73.326	-17.916	-73.326	-60.566			
39.100	3100.0	3.1008	0.80940	3831.0	7259.7	0.041200	0.29910	1.0000	2.0000	265.00	7267.2	-0.29017	37.031	-96.775	-17.795	-96.775	-75.272			
39.220	3100.0	3.1010	0.81200	3819.0	7432.1	0.040500	0.30100	1.0000	2.0000	266.00	7248.2	-0.29203	37.151	-73.459	-17.675	-73.459	-89.577			
39.340	3100.0	3.0995	0.80940	3829.4	7338.2	0.041100	0.30160	1.0000	2.0000	267.00	7231.6	-0.29365	37.272	-100.88	-17.555	-100.88	-87.738			
39.460	3100.0	3.0999	0.80980	3828.0	7516.3	0.039900	0.29990	1.0000	2.0000	268.00	7228.3	-0.29398	37.392	-103.44	-17.435	-103.44	-77.676			
39.581	3100.0	3.1006	0.81050	3825.5	7517.6	0.039800	0.29920	1.0000	2.0000	269.00	7216.5	-0.29512	37.512	-64.131	-17.314	-64.131	-63.921			
39.701	3100.0	3.0996	0.80820	3835.2	7191.8	0.041700	0.29990	1.0000	2.0000	270.00	7193.5	-0.29737	37.632	-46.463	-17.194	-46.463	-44.365			
39.821	3100.0	3.1007	0.81150	3820.9	7009.3	0.042900	0.30070	1.0000	2.0000	271.00	7210.5	-0.29572	37.752	-4.6837	-17.074	-4.6837	-25.042			
39.941	3100.0	3.0993	0.81270	3813.6	7549.1	0.039700	0.29970	1.0000	2.0000	272.00	7203.4	-0.29641	37.873	-3.1032	-16.954	-3.1032	-12.702			
40.061	3100.0	3.0997	0.81100	3822.1	7049.3	0.042600	0.30030	1.0000	2.0000	273.00	7208.8	-0.29588	37.993	-6.8284	-16.834	-6.8284	-14.558			
40.182	3100.0	3.0995	0.81260	3814.3	6880.7	0.043600	0.30000	1.0000	2.0000	274.00	7192.5	-0.29747	38.113	-2.4310	-16.713	-2.4310	-36.297			
40.302	3100.0	3.1002	0.81270	3814.7	7318.7	0.041100	0.30080	1.0000	2.0000	275.00	7211.8	-0.29559	38.233	-55.743	-16.593	-55.743	-76.797			
40.422	3100.0	3.1005	0.81310	3813.2	7007.0	0.042800	0.29990	1.0000	2.0000	276.00	7200.4	-0.29670	38.353	-113.38	-16.473	-113.38	-119.78			
40.542	3100.0	3.1001	0.81310	3812.7	7444.2	0.040300	0.30000	1.0000	2.0000	277.00	7171.3	-0.29954	38.474	-205.60	-16.353	-205.60	-155.48			
40.662	3100.0	3.0996	0.81010	3826.2	7206.2	0.041700	0.30050	1.0000	2.0000	278.00	7144.6	-0.30215	38.594	-221.75	-16.233	-221.75	-171.19			
40.783	3100.0	3.0999	0.81620	3798.0	7032.8	0.042700	0.30030	1.0000	2.0000	279.00	7116.2	-0.30493	38.714	-180.92	-16.112	-180.92	-171.00			
40.903	3100.0	3.0989	0.81390	3807.5	6618.9	0.045400	0.30050	1.0000	2.0000	280.00	7094.8	-0.30702	38.834	-134.31	-15.992	-134.31	-153.62			
41.023	3100.0	3.0999	0.81410	3807.8	7463.8	0.040100	0.29930	1.0000	2.0000	281.00	7087.5	-0.30772	38.954	-112.41	-15.872	-112.41	-126.81			
41.143	3100.0	3.0999	0.81810	3789.1	7184.2	0.041800	0.30030	1.0000	2.0000	282.00	7078.2	-0.30864	39.075	-118.69	-15.752	-118.69	-105.43			
41.263	3100.0	3.0992	0.81830	3787.4	7160.3	0.041800	0.29930	1.0000	2.0000	283.00	7056.9	-0.31072	39.195	-87.699	-15.632	-87.699	-86.121			
41.384	3100.0	3.0999	0.81810	3789.1	6958.3	0.043200	0.30060	1.0000	2.0000	284.00	7038.7	-0.31249	39.315	-74.013	-15.511	-74.013	-71.861			
41.504	3100.0	3.0992	0.81690	3793.9	7309.0	0.041100	0.30040	1.0000	2.0000	285.00	7054.5	-0.31095	39.435	-37.795	-15.391	-37.795	-63.661			
41.624	3100.0	3.0999	0.81940	3783.1	7021.0	0.042800	0.30050	1.0000	2.0000	286.00	7034.9	-0.31287	39.555	-41.107	-15.271	-41.107	-54.897			
41.744	3100.0	3.0995	0.81740	3791.9	6820.9	0.044100	0.30080	1.0000	2.0000	287.00	7036.1	-0.31275	39.676	-77.690	-15.151	-77.690	-42.093			
41.865	3100.0	3.1007	0.81810	3790.1	6776.5	0.044300	0.30020	1.0000	2.0000	288.00	7023.2	-0.31400	39.796	-43.878	-15.030	-43.878	-40.489			
41.985	3100.0	3.1007	0.81930	3784.6	6919.4	0.043400	0.30030	1.0000	2.0000	289.00	7013.6	-0.31494	39.916	-9.9924	-14.910	-9.9924	-52.289			
42.105	3100.0	3.1010	0.82060	3778.9	7068.2	0.042500	0.30040	1.0000	2.0000	290.00	7019.7	-0.31435	40.036	-29.778	-14.790	-29.778	-65.252			
42.225	3100.0	3.1007	0.81900	3786.0	7039.9	0.042600	0.29990	1.0000	2.0000	291.00	7031.9	-0.31316	40.157	-100.11	-14.670	-100.11	-78.297			
42.345	3100.0	3.1007	0.81800	3790.6	6813.2	0.043900	0.29910	1.0000	2.0000	292.00	6996.2	-0.31664	40.277	-142.51	-14.550	-142.51	-85.459			
42.466	3100.0	3.0996	0.81790	3789.7	7101.9	0.042200	0.29970	1.0000	2.0000	293.00	6965.2	-0.31967	40.397	-109.10	-14.429	-109.10	-75.163			
42.586	3100.0	3.1003	0.81890	3785.9	6668.2	0.044900	0.29940	1.0000	2.0000	294.00	6967.4	-0.31946	40.517	-45.799	-14.309	-45.799	-51.317			
42.706	3100.0	3.1001	0.82290	3767.3	7212.6	0.041400	0.29860	1.0000	2.0000	295.00	6980.7	-0.31816	40.637	21.699	-14.189	21.699	-16.009			
42.826	3100.0	3.0997	0.81970	3781.5	6905.7	0.043500	0.30040	1.0000	2.0000	296.00	6961.0	-0.32009	40.758	19.124	-14.069	19.124	10.920			
42.947	3100.0	3.0990	0.82020	3778.3	7032.8	0.042700	0.30030	1.0000	2.0000	297.00	6981.5	-0.31808	40.878	34.036	-13.948	34.036	18.403			
43.067	3100.0	3.1000	0.82110	3775.4	7174.2	0.041900	0.30060	1.0000	2.0000	298.00	6978.5	-0.31837	40.998	25.540	-13.828	25.540	16.662			
43.187	3100.0	3.0994	0.82290	3766.4	7004.7	0.042900	0.30050	1.0000	2.0000	299.00	6992.4	-0.31701	41.119	-8.3820	-13.708	-8.3820	21.071			
43.308	3100.0	3.1006	0.82340	3765.6	7160.3	0.041800	0.29930	1.0000	2.0000	300.00	6970.9	-0.31912	41.239	12.992	-13.587	12.992	29.154			
43.428	3100.0	3.0991	0.82380	3762.0	6873.9	0.043600	0.29970	1.0000	2.0000	301.00	6980.3	-0.31820	41.359	41.169	-13.467	41.169	43.057			
43.548	3100.0	3.1004	0.82440	3760.8	6715.9	0.044700	0.30020	1.0000	2.0000	302.00	6992.4	-0.31701	41.479	74.451	-13.347	74.451	60.237			
43.668	3100.0	3.1010	0.82540	3757.0	6532.6	0.046000	0.30050	1.0000	2.0000	303.00	7006.4	-0.31565	41.599	95.056	-13.227	95.056	65.913			
43.788	3100.0	3.0988	0.82260	3767.1	7206.2	0.041700	0.30050	1.0000	2.0000	304.00	7002.5	-0.31603	41.720	77.518	-13.107	77.518	57.166			
43.909	3100.0	3.1009	0.82270	3769.2	7238.0	0.041600	0.30110	1.0000	2.0000	305.00	7032.3	-0.31312	41.840	41.370	-12.986	41.370	26.237			
44.029	3100.0	3.1000	0.82360	3764.0	6894.3	0.043500	0.29990	1.0000	2.0000	306.00	7026.0	-0.31373	41.960	-2.5623	-12.866	-2.5623	-8.7325			
44.149	3100.0	3.0993	0.82370	3762.7	7451.6	0.040300	0.30030	1.0000	2.0000	307.00	7019.5	-0.31437	42.080	-80.195	-12.746	-80.195	-44.080			
44.269	3100.0	3.0994	0.82230	3769.2	6759.0	0.044400	0.30010	1.0000	2.0000	308.00	7007.4	-0.31555	42.200	-79.793	-12.626	-79.793	-68.534			
44.389	3100.0	3.1010	0.82410	3762.9	7068.2	0.042500	0.30040	1.0000	2.0000	309.00	6993.4	-0.31691	42.321	-99.220	-12.506	-99.220	-75.347			
44.510	3100.0	3.1004	0.82280	3768.1	6466.7	0.046500	0.30070	1.0000	2.0000	310.00	6991.1	-0.31714	42.441	-80.898	-12.385	-80.898	-55.834			
44.630	3100.0	3.0992	0.82340	3763.9	7265.7	0.041400	0.30080	1.0000	2.0000	311.00	6968.0	-0.31940	42.561	-36.630	-12.265	-36.630	-31.808			
44.750	3100.0	3.1003	0.82330	3765.7	7295.1	0.041000	0.29910	1.0000	2.0000	312.00	6971.5	-0.31906	42.681	17.373	-12.145	17.373	-13.251			
44.871	3100.0	3.0999	0.82310	3766.1	7106.6	0.042200	0.29990	1.0000	2.0000	313.00	6981.2	-0.31811	42.802	40.334	-12.024	40.334	-6.9667			
44.991	3100.0	3.1013	0.82440	3761.9	7021.0	0.042800	0.30050	1.0000	2.0000	314.00	6995.0	-0.31676	42.923	-6.4317	-11.904	-6.4317	-26.061			
45.111	3100.0	3.1006	0.82490	3758.8	7293.7	0.041200	0.30050	1.0000	2.0000	315.00	6980.5	-0.31817	43.043	-49.478	-11.784	-49.478	-56.150			
45.232	3100.0	3.0987	0.82760	3744.2	7080.4	0.042300	0.29950	1.0000	2.0000	316.00	6967.9	-0.31941	43.163	-132.10	-11.663	-132.10	-94.542			
45.352	3100.0	3.1011	0.82740	3748.0	6768.7	0.044100	0.29850	1.0000	2.0000	317.00	6965.0	-0.31969	43.283	-133.07	-11.543	-133.07	-110.00			
45.472	3100.0	3.1003	0.82820	3743.4	6778.8	0.044300	0.30030	1.0000	2.0000	318.00	6923.4	-0.32376	43.403	-151.62	-11.423	-151.62	-104.84			
45.592	3100.0	3.1003	0.82780	3745.2	6880.7	0.043600	0.30000	1.0000	2.0000	319.00	6922.8	-0.32381	43.523	-83.717	-11.303	-83.717	-86.227			
45.712	3100.0	3.0995	0.82830	3742.0	6955.8	0.043000	0.29910	1.0000	2.0000	320.00	6897.9	-0.32625	43.644	-23.709	-11.183	-23.709	-74.474			
45.833	3100.0	3.0984	0.82850	3739.8	6675.6	0.045000	0.30040	1.0000	2.0000	321.00	6927.4	-0.32336	43.764	-39.015	-11.062	-39.015	-78.190			
45.953	3100.0	3.0992	0.82650	3749.8	6946.5	0.043000	0.29870	1.0000	2.0000	322.00	6906.8	-0.32537	43.884	-74.306	-10.942	-74.306	-100.14			
46.073	3100.0	3.1000	0.82880	3740.3	6919.2	0.043300	0.29960	1.0000	2.0000	323.00	6894.9	-0.32654	44.004	-170.20	-10.822	-170.20	-135.00			
46.193	3100.0	3.1015	0.82850	3743.5	6822.7	0.044000	0.30020	1.0000	2.0000	324.00	6869.5	-0.32902	44.124	-193.46	-10.702	-193.46	-150.23			
46.313	3100.0	3.0993	0.82830	3741.8	6903.2	0.043400	0.29960	1.0000	2.0000	325.00	6843.8	-0.33153	44.245	-198.00	-10.582	-198.00	-138.79			
46.434	3100.0	3.1001	0.83070	3731.9	6972.2	0.043100	0.30050	1.0000	2.0000	326.00	6816.1	-0.33424	44.365	-115.18	-10.461	-115.18	-94.319			
46.554	3100.0	3.1001	0.82960	3736.9	6833.0	0.043700	0.29860	1.0000	2.0000	327.00	6802.6	-0.33556	44.485	-17.089	-10.341	-17.089	-39.213			
46.674	3100.0	3.0996	0.82780	3744.4	6578.0	0.045500	0.29930	1.0000	2.0000	328.00	6820.9	-0.33377	44.605	52.135	-10.221	52.135	12.040			
46.794	3100.0	3.0995	0.82920	3737.9	6747.7	0.044400	0.29960	1.0000	2.0000	329.00	6831.2	-0.33276	44.725	82.068	-10.101	82.068	42.510			
46.914	3100.0	3.1003	0.83050	3733.1	6543.7	0.045800	0.29970	1.0000	2.0000	330.00	6833.1	-0.33257	44.846	58.268	-9.9807	58.268	51.646			
47.035	3100.0	3.0989	0.82910	3737.7	7087.5	0.042300	0.29980	1.0000	2.0000	331.00	6845.8	-0.33134	44.966	37.169	-9.8605	37.169	38.591			
47.155	3100.0	3.0999	0.82770	3745.2	6833.3	0.043800	0.29930	1.0000	2.0000	332.00	6848.6	-0.33106	45.086	28.590	-9.7403	28.590	18.845			
47.275	3100.0	3.1001	0.82840	3742.3	7044.6	0.042600	0.30010	1.0000	2.0000	333.00	6845.8	-0.33134	45.206	-13.138	-9.6201	-13.138	1.6164			
47.395	3100.0	3.1007	0.83300	3722.3	6572.4	0.045600	0.29970	1.0000	2.0000	334.00	6850.3	-0.33089	45.326	-16.662	-9.4999	-16.662	-13.867			
47.515	3100.0	3.0996	0.83070	3731.3	6482.8	0.046400	0.30080	1.0000	2.0000	335.00	6837.0	-0.33219	45.447	-27.877	-9.3798	-27.877	-21.161			
47.635	3100.0	3.0993	0.82990	3734.5	6711.4	0.044700	0.30000	1.0000	2.0000	336.00	6843.0	-0.33161	45.567	-40.249	-9.2597	-40.249	-20.526			
47.756	3100.0	3.0998	0.83270	3722.6	6796.4	0.044200	0.30040	1.0000	2.0000	337.00	6832.7	-0.33261	45.687	-7.8785	-9.1395	-7.8785	-11.216			
47.876	3100.0	3.1010	0.83310	3722.2	7152.7	0.041900	0.29970	1.0000	2.0000	338.00	6828.3	-0.33305	45.807	-9.9659	-9.0193	-9.9659	-2.1033			
47.996	3100.0	3.0993	0.83170	3726.5	6995.3	0.042900	0.30010	1.0000	2.0000	339.00	6839.6	-0.33194	45.927	29.892	-8.8991	29.892	7.6615			
48.116	3100.0	3.1008	0.83050	3733.7	6921.8	0.043500	0.30110	1.0000	2.0000	340.00	6833.5	-0.33253	46.047	17.685	-8.7789	17.685	6.6402			
48.236	3100.0	3.0992	0.83230	3723.7	7221.2	0.041600	0.30040	1.0000	2.0000	341.00	6848.1	-0.33111	46.168	8.5750	-8.6587	8.5750	0.16058			
48.356	3100.0	3.0995	0.83110	3729.4	6734.8	0.044500	0.29970	1.0000	2.0000	342.00	6834.7	-0.33242	46.288	-12.985	-8.5385	-12.985	-7.3988			
48.477	3100.0	3.0997	0.83380	3717.6	6887.6	0.043600	0.30030	1.0000	2.0000	343.00	6844.2	-0.33149	46.408	-42.364	-8.4183	-42.364	-12.920			
48.597	3100.0	3.0991	0.83180	3725.8	7014.1	0.042700	0.29950	1.0000	2.0000	344.00	6827.6	-0.33311	46.528	-7.9047	-8.2981	-7.9047	-12.864			
48.717	3100.0	3.1000	0.83390	3717.5	6543.7	0.045800	0.29970	1.0000	2.0000	345.00	6826.1	-0.33326	46.648	-9.9203	-8.1780	-9.9203	-12.012			
48.837	3100.0	3.1012	0.83570	3710.9	7028.2	0.042600	0.29940	1.0000	2.0000	346.00	6839.0	-0.33200	46.769	8.8537	-8.0578	8.8537	-11.586			
48.957	3100.0	3.1006	0.83470	3714.6	6756.8	0.044400	0.30000	1.0000	2.0000	347.00	6832.6	-0.33263	46.889	-8.7252	-7.9376	-8.7252	-21.417			
49.078	3100.0	3.0994	0.83540	3710.1	6739.9	0.044600	0.30060	1.0000	2.0000	348.00	6829.7	-0.33290	47.009	-40.232	-7.8174	-40.232	-41.128			
49.198	3100.0	3.0993	0.83450	3714.0	6816.3	0.044100	0.30060	1.0000	2.0000	349.00	6825.5	-0.33332	47.129	-57.059	-7.6972	-57.059	-66.097			
49.318	3100.0	3.1006	0.83680	3705.3	6619.5	0.045200	0.29920	1.0000	2.0000	350.00	6818.3	-0.33402	47.249	-108.48	-7.5771	-108.48	-82.125			
49.438	3100.0	3.0996	0.83310	3720.6	6849.0	0.043700	0.29930	1.0000	2.0000	351.00	6804.0	-0.33542	47.369	-115.99	-7.4569	-115.99	-84.783			
49.558	3100.0	3.0996	0.83240	3723.7	6806.8	0.044000	0.29950	1.0000	2.0000	352.00	6775.3	-0.33822	47.490	-88.865	-7.3366	-88.865	-72.426			
49.679	3100.0	3.1008	0.83650	3706.9	7032.9	0.042600	0.29960	1.0000	2.0000	353.00	6777.3	-0.33803	47.610	-53.525	-7.2164	-53.525	-52.955			
49.799	3100.0	3.0996	0.83460	3713.9	6697.1	0.044900	0.30070	1.0000	2.0000	354.00	6778.3	-0.33793	47.730	4.7292	-7.0961	4.7292	-35.255			
49.919	3100.0	3.0989	0.83270	3721.5	6540.3	0.045900	0.30020	1.0000	2.0000	355.00	6770.3	-0.33871	47.850	-11.126	-6.9759	-11.126	-23.890			
50.039	3100.0	3.0991	0.83550	3709.3	6752.8	0.044500	0.30050	1.0000	2.0000	356.00	6781.6	-0.33760	47.971	-27.487	-6.8557	-27.487	-28.371			
50.159	3100.0	3.1000	0.83230	3724.6	6576.8	0.045600	0.29990	1.0000	2.0000	357.00	6768.9	-0.33884	48.091	-32.040	-6.7356	-32.040	-43.464			
50.280	3100.0	3.1013	0.83880	3697.3	6737.1	0.044500	0.29980	1.0000	2.0000	358.00	6762.4	-0.33948	48.211	-75.934	-6.6154	-75.934	-52.889			
50.400	3100.0	3.1004	0.83580	3709.5	7063.5	0.042500	0.30020	1.0000	2.0000	359.00	6760.7	-0.33965	48.331	-70.735	-6.4952	-70.735	-57.855			
50.520	3100.0	3.0991	0.83720	3701.7	6845.1	0.043900	0.30050	1.0000	2.0000	360.00	6740.1	-0.34166	48.451	-58.249	-6.3750	-58.249	-63.727			
50.640	3100.0	3.1005	0.83530	3711.8	6620.3	0.045300	0.29990	1.0000	2.0000	361.00	6737.6	-0.34191	48.571	-52.317	-6.2549	-52.317	-68.842			
50.760	3100.0	3.1000	0.83690	3704.1	6618.9	0.045400	0.30050	1.0000	2.0000	362.00	6739.0	-0.34177	48.692	-61.397	-6.1347	-61.397	-70.976			
50.881	3100.0	3.1000	0.83490	3713.0	6776.5	0.044300	0.30020	1.0000	2.0000	363.00	6729.8	-0.34267	48.812	-101.51	-6.0145	-101.51	-69.044			
51.001	3100.0	3.1006	0.83600	3708.9	6908.0	0.043500	0.30050	1.0000	2.0000	364.00	6707.1	-0.34488	48.932	-81.407	-5.8943	-81.407	-57.731			
51.121	3100.0	3.1002	0.83780	3700.4	6847.4	0.043900	0.30060	1.0000	2.0000	365.00	6692.5	-0.34631	49.052	-48.588	-5.7741	-48.588	-39.336			
51.241	3100.0	3.0997	0.83930	3693.2	6781.0	0.044300	0.30040	1.0000	2.0000	366.00	6708.7	-0.34472	49.172	4.2493	-5.6539	4.2493	-24.365			
51.361	3100.0	3.0997	0.83800	3698.9	6761.3	0.044400	0.30020	1.0000	2.0000	367.00	6699.8	-0.34560	49.293	30.576	-5.5337	30.576	-19.051			
51.481	3100.0	3.1013	0.83590	3710.1	6620.8	0.045100	0.29860	1.0000	2.0000	368.00	6706.0	-0.34499	49.413	-26.655	-5.4136	-26.655	-19.987			
51.602	3100.0	3.1011	0.83980	3692.7	6702.5	0.044700	0.29960	1.0000	2.0000	369.00	6712.2	-0.34438	49.533	-54.836	-5.2933	-54.836	-28.625			
51.722	3100.0	3.1010	0.83760	3702.2	6385.1	0.047000	0.30010	1.0000	2.0000	370.00	6686.5	-0.34690	49.653	-53.271	-5.1732	-53.271	-33.971			
51.842	3100.0	3.1006	0.83950	3693.4	6565.8	0.045600	0.29940	1.0000	2.0000	371.00	6676.6	-0.34786	49.773	-38.936	-5.0530	-38.936	-33.368			
51.962	3100.0	3.1000	0.83800	3699.3	6878.7	0.043700	0.30060	1.0000	2.0000	372.00	6691.8	-0.34637	49.893	3.8418	-4.9328	3.8418	-36.746			
52.082	3100.0	3.1015	0.84030	3690.9	6613.7	0.045300	0.29960	1.0000	2.0000	373.00	6686.2	-0.34693	50.014	-23.640	-4.8126	-23.640	-35.453			
52.203	3100.0	3.1004	0.84250	3680.0	6556.8	0.045800	0.30030	1.0000	2.0000	374.00	6684.0	-0.34714	50.134	-71.725	-4.6922	-71.725	-31.021			
52.323	3100.0	3.0998	0.84170	3682.8	6390.2	0.046900	0.29970	1.0000	2.0000	375.00	6666.3	-0.34887	50.254	-46.805	-4.5720	-46.805	-26.713			
52.443	3100.0	3.1000	0.84080	3687.0	6880.7	0.043600	0.30000	1.0000	2.0000	376.00	6658.6	-0.34962	50.374	-16.776	-4.4519	-16.776	-16.292			
52.563	3100.0	3.1002	0.83770	3700.8	6565.5	0.045800	0.30070	1.0000	2.0000	377.00	6670.7	-0.34843	50.495	25.383	-4.3317	25.383	-2.5024			
52.684	3100.0	3.0999	0.83810	3698.7	6707.6	0.044800	0.30050	1.0000	2.0000	378.00	6671.7	-0.34834	50.615	28.463	-4.2114	28.463	6.4305			
52.804	3100.0	3.1001	0.83920	3694.1	6867.3	0.043700	0.30010	1.0000	2.0000	379.00	6675.0	-0.34802	50.735	-2.7766	-4.0912	-2.7766	5.0625			
52.924	3100.0	3.0998	0.84140	3684.1	6522.8	0.046100	0.30070	1.0000	2.0000	380.00	6673.6	-0.34816	50.855	-2.1407	-3.9711	-2.1407	-1.7559			
53.044	3100.0	3.0999	0.84310	3676.8	6638.0	0.045300	0.30070	1.0000	2.0000	381.00	6668.1	-0.34869	50.975	-23.616	-3.8509	-23.616	-6.8159			
53.164	3100.0	3.1004	0.84080	3687.4	6939.7	0.043100	0.29910	1.0000	2.0000	382.00	6673.9	-0.34813	51.096	-8.7095	-3.7308	-8.7095	-5.8073			
53.284	3100.0	3.1002	0.84110	3685.9	6500.0	0.046200	0.30030	1.0000	2.0000	383.00	6660.7	-0.34942	51.216	3.1633	-3.6106	3.1633	-6.9091			
53.405	3100.0	3.1007	0.84310	3677.7	6731.5	0.044700	0.30090	1.0000	2.0000	384.00	6672.1	-0.34830	51.336	2.2668	-3.4904	2.2668	-9.3433			
53.525	3100.0	3.0994	0.84380	3673.1	6536.1	0.045700	0.29870	1.0000	2.0000	385.00	6670.9	-0.34842	51.456	-7.6499	-3.3701	-7.6499	-6.8071			
53.645	3100.0	3.1004	0.84190	3682.6	6686.0	0.044900	0.30020	1.0000	2.0000	386.00	6670.1	-0.34849	51.576	-35.787	-3.2500	-35.787	-10.780			
53.766	3100.0	3.0997	0.84580	3664.8	7035.2	0.042600	0.29970	1.0000	2.0000	387.00	6657.1	-0.34977	51.697	3.9716	-3.1295	3.9716	-15.052			
53.886	3100.0	3.0988	0.84370	3672.9	6782.3	0.044100	0.29910	1.0000	2.0000	388.00	6657.5	-0.34973	51.817	-16.700	-3.0093	-16.700	-18.268			
54.006	3100.0	3.0997	0.84380	3673.5	6689.7	0.044800	0.29970	1.0000	2.0000	389.00	6679.6	-0.34756	51.937	-19.097	-2.8891	-19.097	-26.436			
54.126	3100.0	3.1002	0.84350	3675.4	6672.6	0.044900	0.29960	1.0000	2.0000	390.00	6648.8	-0.35058	52.057	-23.730	-2.7689	-23.730	-38.335			
54.246	3100.0	3.1011	0.84620	3664.7	6270.4	0.047700	0.29910	1.0000	2.0000	391.00	6649.9	-0.35047	52.178	-76.627	-2.6487	-76.627	-51.593			
54.366	3100.0	3.1001	0.84500	3668.8	6686.7	0.045000	0.30090	1.0000	2.0000	392.00	6658.1	-0.34967	52.298	-55.521	-2.5286	-55.521	-66.014			
54.487	3100.0	3.1004	0.84660	3662.2	6601.3	0.045400	0.29970	1.0000	2.0000	393.00	6628.9	-0.35252	52.418	-82.991	-2.4083	-82.991	-66.614			
54.607	3100.0	3.1004	0.84990	3648.0	6853.2	0.043600	0.29880	1.0000	2.0000	394.00	6625.9	-0.35281	52.538	-91.202	-2.2881	-91.202	-62.054			
54.727	3100.0	3.0998	0.84970	3648.1	6532.6	0.046000	0.30050	1.0000	2.0000	395.00	6616.1	-0.35377	52.658	-26.729	-2.1679	-26.729	-63.240			
54.847	3100.0	3.1007	0.84850	3654.3	6373.1	0.046900	0.29890	1.0000	2.0000	396.00	6609.7	-0.35440	52.779	-53.829	-2.0478	-53.829	-59.237			
54.967	3100.0	3.1008	0.84910	3651.9	6606.6	0.045500	0.30060	1.0000	2.0000	397.00	6621.0	-0.35329	52.899	-61.448	-1.9275	-61.448	-56.227			
55.088	3100.0	3.0999	0.85060	3644.4	6574.6	0.045600	0.29980	1.0000	2.0000	398.00	6591.1	-0.35621	53.019	-62.979	-1.8074	-62.979	-55.184			
55.208	3100.0	3.0999	0.85220	3637.5	7172.7	0.041700	0.29910	1.0000	2.0000	399.00	6588.5	-0.35647	53.139	-76.152	-1.6872	-76.152	-51.986			
55.328	3100.0	3.1003	0.84770	3657.3	6219.5	0.048300	0.30040	1.0000	2.0000	400.00	6588.1	-0.35651	53.259	-21.514	-1.5670	-21.514	-44.773			
55.448	3100.0	3.1009	0.85060	3645.5	6546.8	0.045900	0.30050	1.0000	2.0000	401.00	6576.8	-0.35761	53.380	-37.837	-1.4468	-37.837	-33.601			
55.568	3100.0	3.1008	0.84750	3658.8	6809.1	0.044000	0.29960	1.0000	2.0000	402.00	6584.1	-0.35690	53.500	-25.386	-1.3266	-25.386	-19.810			
55.689	3100.0	3.1010	0.85000	3648.2	6327.7	0.047300	0.29930	1.0000	2.0000	403.00	6567.7	-0.35849	53.620	-7.1178	-1.2064	-7.1178	-6.9435			
55.809	3100.0	3.0999	0.85130	3641.4	6436.6	0.046500	0.29930	1.0000	2.0000	404.00	6577.3	-0.35756	53.740	-7.1946	-1.0862	-7.1946	6.5545			
55.929	3100.0	3.1009	0.84880	3653.3	6526.1	0.046000	0.30020	1.0000	2.0000	405.00	6575.8	-0.35770	53.860	42.818	-0.96585	42.818	15.474			
56.049	3100.0	3.0997	0.84860	3652.7	6400.4	0.046700	0.29890	1.0000	2.0000	406.00	6575.7	-0.35772	53.981	29.653	-0.84566	29.653	10.978			
56.170	3100.0	3.1006	0.84910	3651.6	6923.8	0.043300	0.29980	1.0000	2.0000	407.00	6594.3	-0.35590	54.101	19.214	-0.72542	19.214	0.62608			
56.290	3100.0	3.0994	0.85110	3641.6	6408.1	0.046800	0.29990	1.0000	2.0000	408.00	6585.9	-0.35672	54.221	-29.599	-0.60516	-29.599	-8.2119			
56.410	3100.0	3.0993	0.85250	3635.5	6726.5	0.044600	0.30000	0.0100000	2.0000	409.00	6582.3	-0.35707	54.341	-58.954	-0.48489	-58.954	-1.1237			
56.464	3100.0	3.1001	0.82520	3756.8	6681.5	0.044900	0.30000	0.0100000	2.0000	410.00	6562.6	-0.35900	54.395	-1.3722	-0.43082	-1.3722	13.864			
56.518	3100.0	3.1003	0.81630	3798.0	6434.7	0.046700	0.30050	0.0100000	2.0000	411.00	6581.6	-0.35714	54.449	65.093	-0.37700	65.093	33.914			
56.572	3100.0	3.1000	0.81490	3804.1	6424.0	0.046700	0.30000	0.0100000	2.0000	412.00	6589.1	-0.35640	54.503	94.153	-0.32313	94.153	68.392			
56.626	2500.0	2.5006	0.61050	4096.0	6343.9	0.047400	0.30070	0.0100000	2.0000	413.00	6586.5	-0.35666	54.557	70.649	-0.26923	70.649	105.86			
56.680	1900.0	1.8993	0.42800	4437.6	6802.7	0.044100	0.30000	0.0100000	2.0000	414.00	6585.5	-0.35676	54.611	113.44	-0.21519	113.44	123.03			
56.734	1300.0	1.3002	0.26790	4853.3	6821.9	0.043800	0.29880	0.0100000	2.0000	415.00	6602.5	-0.35510	54.665	185.95	-0.16129	185.95	130.76			
56.788	700.00	0.70080	0.12850	5453.7	6529.4	0.045900	0.29970	0.0100000	2.0000	416.00	6611.8	-0.35419	54.719	150.99	-0.10737	150.99	137.46			
56.842	100.00	0.099900	0.0079000	12646	6764.0	0.044500	0.30100	0.0100000	2.0000	417.00	6623.6	-0.35304	54.773	132.77	-0.053428	132.77	120.90			
56.895	300.00	0.30070	0.045200	6652.7	6430.7	0.046900	0.30160	0.0100000	2.0000	418.00	6615.7	-0.35381	54.827	104.17	0.00046967	104.17	102.20	6615.7		
56.950	500.00	0.49980	0.085000	5880.0	6497.8	0.046200	0.30020	0.0100000	2.0000	419.00	6636.4	-0.35179	54.881	30.620	0.054509	30.620	106.94	6636.4		
57.003	500.00	0.50040	0.083700	5978.5	6758.5	0.044300	0.29940	0.0100000	2.0000	420.00	6633.5	-0.35208	54.935	92.429	0.10834	92.429	143.80	6633.5		
57.057	500.00	0.49980	0.085500	5845.6	6620.0	0.045000	0.29790	0.0100000	2.0000	421.00	6622.9	-0.35310	54.988	174.70	0.16218	174.70	194.87	6622.9		
57.111	500.00	0.50080	0.085000	5891.8	6704.7	0.044700	0.29970	0.0100000	2.0000	422.00	6647.3	-0.35072	55.043	317.10	0.21622	317.10	226.79	6647.3		
57.165	450.00	0.45090	0.074800	6028.1	6754.5	0.044400	0.29990	0.0100000	2.0000	423.00	6676.5	-0.34787	55.096	359.52	0.27005	359.52	222.36	6676.5		
57.219	400.00	0.40030	0.064700	6187.0	6305.4	0.047800	0.30140	0.0100000	2.0000	424.00	6692.1	-0.34635	55.150	190.22	0.32384	190.22	187.86	6692.1		
57.273	350.00	0.35090	0.055600	6311.2	6794.1	0.044200	0.30030	0.0100000	2.0000	425.00	6697.3	-0.34584	55.204	70.243	0.37766	70.243	153.10	6697.3		
57.327	300.00	0.30000	0.045000	6666.7	6720.4	0.044700	0.30040	0.0100000	2.0000	426.00	6688.1	-0.34673	55.258	2.2165	0.43170	2.2165	144.43	6688.1		
57.381	300.00	0.29970	0.045900	6529.4	6648.2	0.045200	0.30050	0.0100000	2.0000	427.00	6697.4	-0.34583	55.312	143.32	0.48575	143.32	189.02	6697.4		
57.435	300.00	0.29970	0.046300	6473.0	6757.9	0.044200	0.29870	0.0100000	2.0000	428.00	6692.6	-0.34630	55.366	316.13	0.53977	316.13	277.94	6692.6		
57.489	300.00	0.30010	0.045400	6610.1	6842.8	0.043900	0.30040	0.0100000	2.0000	429.00	6733.8	-0.34227	55.420	413.19	0.59392	413.19	391.81	6733.8		
57.543	300.00	0.30030	0.043700	6871.9	6665.2	0.045100	0.30060	0.0100000	2.0000	430.00	6755.4	-0.34017	55.474	514.84	0.64786	514.84	500.75	6755.4		
57.597	300.00	0.29860	0.043800	6817.4	6460.2	0.046500	0.30040	0.0100000	2.0000	431.00	6777.7	-0.33799	55.528	571.58	0.70191	571.58	587.84	6777.7		
57.651	300.00	0.30040	0.043900	6842.8	6946.6	0.043100	0.29940	0.0100000	2.0000	432.00	6809.6	-0.33487	55.582	688.01	0.75570	688.01	659.52	6809.6		
57.705	300.00	0.29910	0.044500	6721.3	7037.6	0.042600	0.29980	0.0100000	2.0000	433.00	6860.8	-0.32987	55.636	751.57	0.80970	751.57	583.09	6860.8		
57.759	300.00	0.30020	0.046600	6442.1	6671.1	0.045000	0.30020	0.0100000	2.0000	434.00	6899.4	-0.32609	55.690	771.61	0.86375	771.61	479.59	6899.4		
57.813	300.00	0.30100	0.045600	6600.9	6912.4	0.043400	0.30000	0.0100000	2.0000	435.00	6935.7	-0.32256	55.744	132.69	0.91781	132.69	350.20	6935.7		
57.867	300.00	0.29940	0.044200	6773.8	6629.1	0.045300	0.30030	0.0100000	2.0000	436.00	6980.7	-0.31816	55.798	54.049	0.97183	54.049	207.54	6980.7		
58.554	300.00	0.29970	0.042000	7135.7	6724.8	0.044700	0.30060	0.0100000	40.000	437.00	7006.9	-0.31560	56.485	41.066	1.6592	41.066	61.110	7006.9		
59.875	300.00	0.29930	0.042200	7092.4	6663.0	0.045100	0.30050	0.0100000	40.000	438.00	7043.9	-0.31198	57.806	38.295	2.9799	38.295	42.740	7043.9		
61.195	300.00	0.29940	0.040300	7429.3	7295.1	0.041000	0.29910	0.0100000	40.000	439.00	7099.2	-0.30658	59.127	39.449	4.3004	39.449	39.889	7099.2		
62.516	300.00	0.29990	0.041000	7314.6	6951.4	0.043200	0.30030	0.0100000	40.000	440.00	7162.2	-0.30043	60.447	40.841	5.6209	40.841	39.108	7162.2		
63.836	300.00	0.29920	0.041600	7192.3	7227.1	0.041400	0.29920	0.0100000	40.000	441.00	7208.2	-0.29594	61.768	39.793	6.9414	39.793	38.973	7208.2		
65.157	300.00	0.30100	0.042800	7032.7	7290.6	0.041300	0.30110	0.0100000	40.000	442.00	7259.1	-0.29097	63.088	37.162	8.2619	37.162	37.462	7259.1		
66.478	300.00	0.30040	0.040900	7344.7	7779.8	0.038600	0.30030	0.0100000	40.000	443.00	7313.5	-0.28565	64.409	37.621	9.5826	37.621	35.600	7313.5		
67.798	300.00	0.29960	0.040600	7379.3	7565.3	0.039800	0.30110	0.0100000	40.000	444.00	7354.9	-0.28160	65.730	31.893	10.903	31.893	34.158	7354.9		
69.119	300.00	0.30150	0.040300	7481.4	7066.2	0.042300	0.29890	0.0100000	40.000	445.00	7408.7	-0.27635	67.050	31.531	12.224	31.531	34.002	7408.7		
70.440	300.00	0.29980	0.038200	7848.2	7739.7	0.038800	0.30030	0.0100000	40.000	446.00	7422.1	-0.27504	68.371	32.581	13.545	32.581	34.450	7422.1		
71.760	300.00	0.30010	0.038300	7835.5	7270.1	0.041100	0.29880	0.0100000	40.000	447.00	7488.1	-0.26859	69.692	36.382	14.865	36.382	35.327	7488.1		
73.081	300.00	0.29930	0.038300	7814.6	7426.8	0.040300	0.29930	0.0100000	40.000	448.00	7530.4	-0.26447	71.012	39.861	16.186	39.861	36.004	7530.4		
74.401	300.00	0.30110	0.038400	7841.1	7918.2	0.037900	0.30010	0.0100000	40.000	449.00	7594.8	-0.25818	72.333	36.278	17.506	36.278	35.246	7594.8		
75.722	300.00	0.30030	0.040800	7360.3	8166.2	0.036700	0.29970	0.0100000	40.000	450.00	7632.0	-0.25455	73.653	34.919	18.827	34.919	32.590	7632.0		
77.043	300.00	0.30010	0.039900	7521.3	7631.0	0.039300	0.29990	0.0100000	40.000	451.00	7676.9	-0.25016	74.974	28.792	20.148	28.792	28.089	7676.9		
78.363	300.00	0.29930	0.039400	7596.4	7528.8	0.039900	0.30040	0.0100000	40.000	452.00	7719.9	-0.24596	76.295	23.099	21.468	23.099	24.645	7719.9		
79.684	300.00	0.30060	0.039300	7648.9	8089.2	0.037000	0.29930	0.0100000	40.000	453.00	7740.9	-0.24390	77.615	17.355	22.789	17.355	21.923	7740.9		
81.004	300.00	0.30040	0.036700	8185.3	7907.9	0.038000	0.30050	0.0100000	40.000	454.00	7752.5	-0.24278	78.936	19.058	24.109	19.058	21.114	7752.5		
82.325	300.00	0.29970	0.037700	7949.6	7800.0	0.038500	0.30030	0.0100000	40.000	455.00	7775.2	-0.24056	80.256	21.309	25.430	21.309	21.242	7775.2		
83.646	300.00	0.30000	0.040000	7500.0	7193.8	0.041800	0.30070	0.0100000	40.000	456.00	7828.6	-0.23534	81.577	24.747	26.751	24.747	21.738	7828.6		
84.966	300.00	0.30020	0.036800	8157.6	8016.0	0.037500	0.30060	0.0100000	40.000	457.00	7843.6	-0.23388	82.897	23.741	28.071	23.741	20.282	7843.6		
86.287	300.00	0.30080	0.038400	7833.3	7611.7	0.039400	0.29990	0.0100000	40.000	458.00	7881.7	-0.23016	84.218	19.836	29.392	19.836	16.655	7881.7		
87.607	300.00	0.30110	0.037600	8008.0	8016.0	0.037600	0.30140	0.0100000	40.000	459.00	7905.4	-0.22783	85.539	11.776	30.712	11.776	12.696	7905.4		
88.928	300.00	0.29940	0.037600	7962.8	8075.5	0.037100	0.29960	0.0100000	40.000	460.00	7928.7	-0.22557	86.859	3.1777	32.033	3.1777	10.500	7928.7		
90.249	300.00	0.29960	0.039700	7546.6	7894.7	0.038000	0.30000	0.0100000	40.000	461.00	7897.8	-0.22858	88.180	4.9497	33.354	4.9497	10.689	7897.8		
91.569	300.00	0.29990	0.037100	8083.6	8130.4	0.036800	0.29920	0.0100000	40.000	462.00	7906.4	-0.22773	89.501	12.759	34.674	12.759	11.805	7906.4		
92.890	300.00	0.29990	0.038800	7729.4	7732.6	0.038900	0.30080	0.0100000	40.000	463.00	7949.2	-0.22356	90.821	20.784	35.995	20.784	14.569	7949.2		
94.210	300.00	0.30010	0.037200	8067.2	8021.4	0.037400	0.30000	0.0100000	40.000	464.00	7987.2	-0.21985	92.142	17.358	37.315	17.358	16.547	7987.2		
95.531	300.00	0.29830	0.039200	7609.7	8042.9	0.037300	0.30000	0.0100000	40.000	465.00	7994.7	-0.21912	93.462	16.994	38.636	16.994	17.788	7994.7		
96.852	300.00	0.29970	0.036200	8279.0	8188.0	0.036700	0.30050	0.0100000	40.000	466.00	7998.3	-0.21876	94.783	14.839	39.957	14.839	17.804	7998.3		
98.172	300.00	0.29940	0.035500	8433.8	8053.8	0.037200	0.29960	0.0100000	40.000	467.00	8055.9	-0.21314	96.104	18.966	41.277	18.966	17.809	8055.9		
99.493	300.00	0.29930	0.039000	7674.4	8070.1	0.037100	0.29940	0.0100000	40.000	468.00	8054.6	-0.21326	97.424	20.863	42.598	20.863	17.961	8054.6		
100.81	300.00	0.29970	0.035800	8371.5	7925.7	0.037700	0.29880	0.0100000	40.000	469.00	8091.8	-0.20963	98.745	17.383	43.918	17.383	17.038	8091.8		
102.13	300.00	0.29990	0.036600	8194.0	8406.2	0.035700	0.30010	0.0100000	40.000	470.00	8118.1	-0.20706	100.07	17.752	45.239	17.752	15.552	8118.1		
103.46	300.00	0.29970	0.036100	8301.9	7518.8	0.039900	0.30000	0.0100000	40.000	471.00	8138.9	-0.20503	101.39	10.228	46.560	10.228	13.655	8138.9		
104.78	300.00	0.30130	0.037000	8143.2	7812.0	0.038300	0.29920	0.0100000	40.000	472.00	8148.3	-0.20411	102.71	11.531	47.881	11.531	12.657	8148.3		
106.10	300.00	0.29900	0.037600	7952.1	8427.0	0.035600	0.30000	0.0100000	40.000	473.00	8144.3	-0.20451	104.03	11.380	49.202	11.380	12.291	8144.3		
107.42	300.00	0.30040	0.036200	8298.3	8887.2	0.033700	0.29950	0.0100000	40.000	474.00	8191.6	-0.19988	105.35	12.396	50.523	12.396	13.533	8191.6		
108.74	300.00	0.30070	0.038100	7892.4	8064.5	0.037200	0.30000	0.0100000	40.000	475.00	8192.4	-0.19981	106.67	15.923	51.844	15.923	15.474	8192.4		
110.06	300.00	0.30000	0.036600	8196.7	7876.6	0.038100	0.30010	0.0100000	40.000	476.00	8206.1	-0.19847	107.99	16.436	53.165	16.436	17.923	8206.1		
111.38	300.00	0.29910	0.034000	8797.1	8402.2	0.035800	0.30080	0.0100000	40.000	477.00	8242.2	-0.19494	109.31	21.237	54.486	21.237	19.158	8242.2		
112.70	300.00	0.30020	0.035000	8577.1	7989.4	0.037600	0.30040	0.0100000	40.000	478.00	8275.3	-0.19171	110.63	23.622	55.807	23.622	20.098	8275.3		
114.02	300.00	0.30030	0.036800	8160.3	8392.2	0.035700	0.29960	0.0100000	40.000	479.00	8298.0	-0.18949	111.95	18.573	57.127	18.573	21.968	8298.0		
115.34	300.00	0.29930	0.036800	8133.2	8569.8	0.035100	0.30080	0.0100000	40.000	480.00	8334.2	-0.18596	113.27	20.623	58.448	20.623	22.930	8334.2		
116.66	300.00	0.30070	0.035200	8542.6	8511.4	0.035200	0.29960	0.0100000	40.000	481.00	8335.4	-0.18584	114.60	25.786	59.769	25.786	22.136	8335.4		
117.99	300.00	0.30030	0.036400	8250.0	8091.9	0.037000	0.29940	0.0100000	40.000	482.00	8392.8	-0.18023	115.92	26.047	61.090	26.047	21.290	8392.8		
119.31	300.00	0.29940	0.036900	8113.8	8045.7	0.037200	0.29930	0.0100000	40.000	483.00	8439.0	-0.17571	117.24	19.649	62.411	19.649	20.627	8439.0		
120.63	300.00	0.30050	0.035400	8488.7	8727.5	0.034500	0.30110	0.0100000	40.000	484.00	8454.4	-0.17422	118.56	14.344	63.732	14.344	19.949	8454.4		
121.95	300.00	0.29790	0.036500	8161.6	8037.4	0.037400	0.30060	0.0100000	40.000	485.00	8434.4	-0.17617	119.88	17.309	65.053	17.309	20.905	8434.4		
123.27	300.00	0.30060	0.035700	8420.2	8330.6	0.036000	0.29990	0.0100000	40.000	486.00	8489.9	-0.17075	121.20	22.396	66.374	22.396	22.098	8489.9		
124.59	300.00	0.30030	0.033600	8937.5	8946.1	0.033400	0.29880	0.0100000	40.000	487.00	8535.6	-0.16628	122.52	30.829	67.695	30.829	22.638	8535.6		
125.91	300.00	0.29940	0.036600	8180.3	8748.5	0.034200	0.29920	0.0100000	40.000	488.00	8551.7	-0.16471	123.84	25.611	69.016	25.611	20.718	8551.7		
127.23	300.00	0.29980	0.035800	8374.3	8548.3	0.035200	0.30090	0.0100000	40.000	489.00	8607.1	-0.15930	125.16	17.045	70.337	17.045	16.791	8607.1		
128.55	300.00	0.30000	0.033700	8902.1	8684.1	0.034500	0.29960	0.0100000	40.000	490.00	8623.3	-0.15772	126.48	7.7100	71.658	7.7100	12.092	8623.3		
129.87	300.00	0.29920	0.034400	8697.7	8432.6	0.035600	0.30020	0.0100000	40.000	491.00	8612.4	-0.15878	127.81	2.7607	72.979	2.7607	9.0670	8612.4		
131.20	300.00	0.29970	0.034800	8612.1	8723.8	0.034400	0.30010	0.0100000	40.000	492.00	8600.0	-0.16000	129.13	7.3355	74.300	7.3355	8.5823	8600.0		
132.52	300.00	0.30130	0.036100	8346.3	8783.0	0.034100	0.29950	0.0100000	40.000	493.00	8637.0	-0.15638	130.45	10.484	75.621	10.484	9.4886	8637.0		
133.84	300.00	0.29940	0.034500	8678.3	8749.3	0.034300	0.30010	0.0100000	40.000	494.00	8659.4	-0.15419	131.77	14.621	76.942	14.621	10.476	8659.4		
135.16	300.00	0.29970	0.036000	8325.0	8467.6	0.035500	0.30060	0.0100000	40.000	495.00	8651.9	-0.15492	133.09	12.241	78.263	12.241	9.3250	8651.9		
136.48	300.00	0.30000	0.035800	8379.9	9229.1	0.032300	0.29810	0.0100000	40.000	496.00	8689.1	-0.15129	134.41	7.6963	79.584	7.6963	5.8396	8689.1		
137.80	300.00	0.29950	0.033600	8913.7	8837.8	0.033900	0.29960	0.0100000	40.000	497.00	8703.0	-0.14993	135.73	1.5821	80.906	1.5821	1.1270	8703.0		
139.12	300.00	0.30010	0.036200	8290.1	8739.8	0.034200	0.29890	0.0100000	40.000	498.00	8684.7	-0.15172	137.05	-6.9432	82.227	-6.9432	-1.9858	8684.7		
140.44	300.00	0.30040	0.032400	9271.6	9152.9	0.032700	0.29930	0.0100000	40.000	499.00	8664.6	-0.15369	138.37	-8.9415	83.548	-8.9415	-2.9700	8664.6		
141.76	300.00	0.29990	0.034300	8743.4	8731.8	0.034300	0.29950	0.0100000	40.000	500.00	8662.5	-0.15389	139.69	-3.3225	84.868	-3.3225	-1.9531	8662.5		
143.08	300.00	0.29990	0.036200	8284.5	8341.7	0.036000	0.30030	0.0100000	40.000	501.00	8655.1	-0.15461	141.02	2.7753	86.189	2.7753	1.3739	8655.1		
144.41	300.00	0.30100	0.034300	8775.5	8250.0	0.036400	0.30030	0.0100000	40.000	502.00	8667.5	-0.15340	142.34	6.6662	87.511	6.6662	5.4555	8667.5		
145.73	300.00	0.29980	0.034100	8791.8	8869.4	0.033700	0.29890	0.0100000	40.000	503.00	8680.4	-0.15214	143.66	9.6922	88.831	9.6922	7.3696	8680.4		
147.05	300.00	0.30070	0.034400	8741.3	8517.0	0.035200	0.29980	0.0100000	40.000	504.00	8693.9	-0.15082	144.98	11.467	90.153	11.467	7.0083	8693.9		
148.37	300.00	0.29980	0.033600	8922.6	8569.8	0.035100	0.30080	0.0100000	40.000	505.00	8705.9	-0.14964	146.30	6.2475	91.473	6.2475	5.2389	8705.9		
149.69	300.00	0.29920	0.031500	9498.4	8817.6	0.034000	0.29980	0.0100000	40.000	506.00	8730.4	-0.14725	147.62	0.96921	92.794	0.96921	1.9851	8730.4		
151.01	300.00	0.30010	0.032200	9319.9	8623.6	0.034800	0.30010	0.0100000	40.000	507.00	8703.3	-0.14990	148.94	-2.1809	94.115	-2.1809	-0.99595	8703.3		
152.33	300.00	0.29940	0.033300	8991.0	8561.6	0.034900	0.29880	0.0100000	40.000	508.00	8701.6	-0.15007	150.26	-6.5769	95.436	-6.5769	-1.6931	8701.6		
153.65	300.00	0.29960	0.036000	8322.2	8325.0	0.036000	0.29970	0.0100000	40.000	509.00	8706.0	-0.14964	151.58	-3.4386	96.757	-3.4386	0.78104	8706.0		
154.97	300.00	0.30010	0.033000	9093.9	8504.3	0.035100	0.29850	0.0100000	40.000	510.00	8685.7	-0.15162	152.90	2.7616	98.078	2.7616	4.8993	8685.7		
156.29	300.00	0.30000	0.034800	8620.7	8529.7	0.035300	0.30110	0.0100000	40.000	511.00	8688.6	-0.15134	154.23	13.340	99.399	13.340	9.5926	8688.6		
157.61	300.00	0.29930	0.034400	8700.6	8692.8	0.034500	0.29990	0.0100000	40.000	512.00	8728.5	-0.14744	155.55	18.410	100.72	18.410	12.451	8728.5		
158.94	300.00	0.30040	0.034500	8707.2	8994.0	0.033300	0.29950	0.0100000	40.000	513.00	8772.7	-0.14313	156.87	16.889	102.04	16.889	12.739	8772.7		
160.26	300.00	0.29910	0.033400	8955.1	9066.5	0.033100	0.30010	0.0100000	40.000	514.00	8765.2	-0.14385	158.19	10.853	103.36	10.853	11.541	8765.2		
161.58	300.00	0.30070	0.034700	8665.7	9003.0	0.033300	0.29980	0.0100000	40.000	515.00	8781.8	-0.14224	159.51	4.2035	104.68	4.2035	9.5784	8781.8		
162.90	300.00	0.29930	0.033300	8988.0	8982.0	0.033400	0.30000	0.0100000	40.000	516.00	8795.6	-0.14088	160.83	7.3491	106.00	7.3491	8.9210	8795.6		
164.22	300.00	0.29990	0.033500	8952.2	8659.9	0.034700	0.30050	0.0100000	40.000	517.00	8785.2	-0.14190	162.15	8.5972	107.32	8.5972	10.422	8785.2		
165.54	300.00	0.29990	0.033300	9006.0	8800.6	0.034100	0.30010	0.0100000	40.000	518.00	8812.0	-0.13928	163.47	13.603	108.65	13.603	13.653	8812.0		
166.86	300.00	0.29960	0.034700	8634.0	8832.4	0.034000	0.30030	0.0100000	40.000	519.00	8830.4	-0.13749	164.79	18.359	109.97	18.359	15.313	8830.4		
168.18	300.00	0.29850	0.034700	8602.3	8726.7	0.034400	0.30020	0.0100000	40.000	520.00	8862.9	-0.13431	166.11	20.356	111.29	20.356	14.750	8862.9		
169.50	300.00	0.30010	0.034900	8598.9	8792.4	0.034200	0.30070	0.0100000	40.000	521.00	8881.0	-0.13254	167.43	15.649	112.61	15.649	11.494	8881.0		
170.82	300.00	0.30030	0.033800	8884.6	9180.4	0.032700	0.30020	0.0100000	40.000	522.00	8921.1	-0.12862	168.76	5.7820	113.93	5.7820	6.0208	8921.1		
172.15	300.00	0.30000	0.034500	8695.7	9177.4	0.032700	0.30010	0.0100000	40.000	523.00	8904.6	-0.13024	170.08	-2.6764	115.25	-2.6764	1.1585	8904.6		
173.47	300.00	0.30020	0.032000	9381.2	8713.0	0.034500	0.30060	0.0100000	40.000	524.00	8889.3	-0.13173	171.40	-9.0071	116.57	-9.0071	-1.2145	8889.3		
174.79	300.00	0.30100	0.034000	8852.9	8864.3	0.033900	0.30050	0.0100000	40.000	525.00	8879.3	-0.13271	172.72	-3.9551	117.89	-3.9551	0.12258	8879.3		
176.11	300.00	0.29990	0.034700	8642.7	8861.4	0.033900	0.30040	0.0100000	40.000	526.00	8874.3	-0.13320	174.04	3.7838	119.21	3.7838	3.2291	8874.3		
177.43	300.00	0.30040	0.034000	8835.3	8598.9	0.034900	0.30010	0.0100000	40.000	527.00	8886.0	-0.13206	175.36	12.468	120.53	12.468	6.9607	8886.0		
178.75	300.00	0.29970	0.034100	8788.9	9186.5	0.032700	0.30040	0.0100000	40.000	528.00	8911.0	-0.12962	176.68	12.856	121.86	12.856	8.6264	8911.0		
180.07	300.00	0.29990	0.033000	9087.9	8946.3	0.033500	0.29970	0.0100000	40.000	529.00	8943.3	-0.12646	178.00	9.6508	123.18	9.6508	7.0546	8943.3		
181.39	300.00	0.29980	0.035400	8468.9	9009.0	0.033200	0.29910	0.0100000	40.000	530.00	8930.6	-0.12770	179.32	4.3736	124.50	4.3736	2.4135	8930.6		
182.71	300.00	0.30010	0.032200	9319.9	8884.6	0.033800	0.30030	0.0100000	40.000	531.00	8939.9	-0.12679	180.64	-4.0754	125.82	-4.0754	-2.3854	8939.9		
184.03	300.00	0.30000	0.034900	8596.0	9371.9	0.032000	0.29990	0.0100000	40.000	532.00	8941.5	-0.12663	181.97	-10.738	127.14	-10.738	-4.9491	8941.5		
185.36	300.00	0.29990	0.034800	8617.8	8345.4	0.035900	0.29960	0.0100000	40.000	533.00	8910.9	-0.12962	183.29	-11.138	128.46	-11.138	-4.5920	8910.9		
186.68	300.00	0.29950	0.032900	9103.3	8673.4	0.034600	0.30010	0.0100000	40.000	534.00	8874.2	-0.13321	184.61	-3.1677	129.78	-3.1677	-1.2569	8874.2		
188.00	300.00	0.29960	0.034600	8659.0	8855.0	0.033800	0.29930	0.0100000	40.000	535.00	8900.0	-0.13069	185.93	6.1588	131.10	6.1588	2.3962	8900.0		
189.32	300.00	0.30030	0.034700	8654.2	8899.1	0.033700	0.29990	0.0100000	40.000	536.00	8926.1	-0.12814	187.25	12.600	132.42	12.600	6.0137	8926.1		
190.64	300.00	0.30040	0.032100	9358.3	9227.0	0.032600	0.30080	0.0100000	40.000	537.00	8925.6	-0.12819	188.57	7.5277	133.74	7.5277	7.9558	8925.6		
191.96	300.00	0.30040	0.034700	8657.1	9184.6	0.032500	0.29850	0.0100000	40.000	538.00	8944.6	-0.12633	189.89	6.9492	135.06	6.9492	7.3388	8944.6		
193.28	300.00	0.29920	0.031500	9498.4	9479.5	0.031700	0.30050	0.0100000	40.000	539.00	8940.5	-0.12673	191.21	6.5432	136.39	6.5432	5.0143	8940.5		
194.60	300.00	0.30030	0.031200	9625.0	8565.3	0.035200	0.30150	0.0100000	40.000	540.00	8964.5	-0.12439	192.53	3.0737	137.71	3.0737	2.7865	8964.5		
195.92	300.00	0.29920	0.031300	9559.1	8922.8	0.033700	0.30070	0.0100000	40.000	541.00	8958.9	-0.12494	193.85	0.97791	139.03	0.97791	0.88859	8958.9		
197.24	300.00	0.30010	0.031400	9557.3	8826.5	0.034000	0.30010	0.0100000	40.000	542.00	8955.7	-0.12525	195.17	-3.6115	140.35	-3.6115	-0.15193	8955.7		
198.56	300.00	0.30070	0.032600	9223.9	8536.9	0.035200	0.30050	0.0100000	40.000	543.00	8951.4	-0.12567	196.50	-2.5403	141.67	-2.5403	0.76811	8951.4		
199.88	300.00	0.29970	0.033000	9081.8	8406.2	0.035700	0.30010	0.0100000	40.000	544.00	8944.4	-0.12635	197.82	1.3406	142.99	1.3406	2.4051	8944.4		
201.21	300.00	0.29870	0.031100	9604.5	9256.2	0.032400	0.29990	0.0100000	40.000	545.00	8947.7	-0.12603	199.14	7.6739	144.31	7.6739	4.6596	8947.7		
202.53	300.00	0.30030	0.033400	8991.0	9410.7	0.031900	0.30020	0.0100000	40.000	546.00	8966.4	-0.12421	200.46	9.1630	145.63	9.1630	4.9950	8966.4		
203.85	300.00	0.30050	0.032900	9133.7	8852.5	0.033900	0.30010	0.0100000	40.000	547.00	8991.1	-0.12179	201.78	7.6608	146.95	7.6608	5.0463	8991.1		
205.17	300.00	0.29910	0.034400	8694.8	8997.0	0.033200	0.29870	0.0100000	40.000	548.00	8983.3	-0.12255	203.10	-0.86306	148.27	-0.86306	5.2969	8983.3		
206.49	300.00	0.30030	0.032600	9211.7	9100.3	0.032900	0.29940	0.0100000	40.000	549.00	8989.9	-0.12191	204.42	1.5970	149.59	1.5970	6.5188	8989.9		
207.81	300.00	0.29950	0.035000	8557.1	9451.1	0.031700	0.29960	0.0100000	40.000	550.00	8961.3	-0.12471	205.74	8.9271	150.92	8.9271	9.7600	8961.3		
209.13	300.00	0.29950	0.031200	9599.4	8890.5	0.033800	0.30050	0.0100000	40.000	551.00	9012.6	-0.11969	207.06	15.272	152.24	15.272	14.625	9012.6		
210.45	300.00	0.29850	0.031100	9598.1	8817.6	0.034000	0.29980	0.0100000	40.000	552.00	9030.9	-0.11791	208.38	23.867	153.56	23.867	18.913	9030.9		
211.77	300.00	0.29930	0.032500	9209.2	9280.9	0.032400	0.30070	0.0100000	40.000	553.00	9055.9	-0.11546	209.71	23.463	154.88	23.463	19.721	9055.9		
213.09	300.00	0.29960	0.031200	9602.6	8200.0	0.036500	0.29930	0.0100000	40.000	554.00	9097.2	-0.11142	211.03	23.036	156.20	23.036	17.965	9097.2		
214.42	300.00	0.29970	0.033000	9081.8	8742.7	0.034200	0.29900	0.0100000	40.000	555.00	9134.4	-0.10779	212.35	12.967	157.52	12.967	13.741	9134.4		
215.74	300.00	0.29990	0.033700	8899.1	9246.2	0.032500	0.30050	0.0100000	40.000	556.00	9143.8	-0.10688	213.67	6.4929	158.84	6.4929	10.876	9143.8		
217.06	300.00	0.29980	0.033500	8949.3	9418.2	0.031800	0.29950	0.0100000	40.000	557.00	9118.3	-0.10936	214.99	2.7434	160.16	2.7434	8.9997	9118.3		
218.38	300.00	0.29990	0.033600	8925.6	9063.3	0.033200	0.30090	0.0100000	40.000	558.00	9148.2	-0.10645	216.31	9.1404	161.48	9.1404	8.0723	9148.2		
219.70	300.00	0.30010	0.033900	8852.5	9323.0	0.032200	0.30020	0.0100000	40.000	559.00	9150.3	-0.10624	217.63	13.654	162.80	13.654	7.8446	9150.3		
221.02	300.00	0.29870	0.034400	8683.1	8878.7	0.033800	0.30010	0.0100000	40.000	560.00	9188.1	-0.10255	218.95	8.3306	164.13	8.3306	7.3478	9188.1		
222.34	300.00	0.30010	0.032500	9233.8	9644.2	0.031200	0.30090	0.0100000	40.000	561.00	9188.5	-0.10251	220.27	5.3543	165.45	5.3543	7.3072	9188.5		
223.66	300.00	0.30090	0.032500	9258.5	9305.6	0.032400	0.30150	0.0100000	40.000	562.00	9184.1	-0.10294	221.59	0.25927	166.77	0.25927	8.5253	9184.1		
224.98	300.00	0.30020	0.032700	9180.4	9353.1	0.032000	0.29930	0.0100000	40.000	563.00	9187.7	-0.10259	222.91	8.9378	168.09	8.9378	11.586	9187.7		
226.30	300.00	0.30020	0.031900	9410.7	9404.4	0.031900	0.30000	0.0100000	40.000	564.00	9190.3	-0.10234	224.24	19.745	169.41	19.745	13.998	9190.3		
227.62	300.00	0.30100	0.030600	9836.6	9186.5	0.032700	0.30040	0.0100000	40.000	565.00	9244.5	-0.097043	225.56	23.636	170.73	23.636	15.406	9244.5		
228.95	300.00	0.29940	0.032600	9184.0	9452.8	0.031800	0.30060	0.0100000	40.000	566.00	9286.1	-0.092975	226.88	17.414	172.05	17.414	14.578	9286.1		
230.27	300.00	0.30040	0.031600	9506.3	8876.1	0.033900	0.30090	0.0100000	40.000	567.00	9295.9	-0.092021	228.20	7.2987	173.37	7.2987	13.181	9295.9		
231.59	300.00	0.30030	0.032100	9355.1	9479.5	0.031700	0.30050	0.0100000	40.000	568.00	9279.6	-0.093615	229.52	4.7972	174.69	4.7972	11.472	9279.6		
232.91	300.00	0.30020	0.032800	9152.4	9042.2	0.033200	0.30020	0.0100000	40.000	569.00	9296.0	-0.092014	230.84	12.758	176.01	12.758	10.535	9296.0		
234.23	300.00	0.29950	0.030900	9692.6	9894.4	0.030300	0.29980	0.0100000	40.000	570.00	9317.8	-0.089883	232.16	15.091	177.33	15.091	10.604	9317.8		
235.55	300.00	0.29990	0.033300	9006.0	9459.1	0.031800	0.30080	0.0100000	40.000	571.00	9361.1	-0.085656	233.48	12.731	178.66	12.731	10.602	9361.1		
236.87	300.00	0.29880	0.034500	8660.9	8797.7	0.034100	0.30000	0.0100000	40.000	572.00	9346.7	-0.087059	234.80	7.6416	179.98	7.6416	10.084	9346.7		
238.19	300.00	0.29990	0.031800	9430.8	8893.5	0.033800	0.30060	0.0100000	40.000	573.00	9365.6	-0.085213	236.12	4.7853	181.30	4.7853	8.0006	9365.6		
239.51	300.00	0.30050	0.031700	9479.5	9334.4	0.032300	0.30150	0.0100000	40.000	574.00	9366.0	-0.085175	237.44	10.172	182.62	10.172	6.5878	9366.0		
240.83	300.00	0.30110	0.031100	9681.7	9338.5	0.032200	0.30070	0.0100000	40.000	575.00	9383.0	-0.083511	238.77	4.6729	183.94	4.6729	5.3812	9383.0		
242.16	300.00	0.30010	0.030600	9807.2	9617.4	0.031100	0.29910	0.0100000	40.000	576.00	9405.2	-0.081348	240.09	5.6674	185.26	5.6674	4.7476	9405.2		
243.48	300.00	0.29960	0.031900	9391.8	9451.1	0.031700	0.29960	0.0100000	40.000	577.00	9376.9	-0.084112	241.41	1.6087	186.58	1.6087	2.7347	9376.9		
244.80	300.00	0.30150	0.031700	9511.0	9075.5	0.033100	0.30040	0.0100000	40.000	578.00	9406.5	-0.081218	242.73	1.6174	187.90	1.6174	1.1813	9406.5		
246.12	300.00	0.30020	0.032800	9152.4	9407.5	0.031900	0.30010	0.0100000	40.000	579.00	9393.0	-0.082538	244.05	0.10696	189.22	0.10696	0.75067	9393.0		
247.44	300.00	0.30130	0.033900	8887.9	9781.0	0.030600	0.29930	0.0100000	40.000	580.00	9407.8	-0.081092	245.37	-3.0938	190.54	-3.0938	1.8873	9407.8		
248.76	300.00	0.30000	0.033900	8849.6	9787.6	0.030600	0.29950	0.0100000	40.000	581.00	9376.9	-0.084107	246.69	3.5141	191.87	3.5141	3.3509	9376.9		
250.08	300.00	0.29950	0.031000	9661.3	9342.7	0.032100	0.29990	0.0100000	40.000	582.00	9394.1	-0.082430	248.01	7.2916	193.19	7.2916	3.9832	9394.1		
251.40	300.00	0.30000	0.031400	9554.1	9702.3	0.030900	0.29980	0.0100000	40.000	583.00	9423.0	-0.079602	249.33	8.9354	194.51	8.9354	4.3713	9423.0		
252.72	300.00	0.29950	0.032400	9243.8	9361.4	0.032100	0.30050	0.0100000	40.000	584.00	9432.9	-0.078640	250.65	3.2687	195.83	3.2687	3.7027	9432.9		
254.04	300.00	0.30020	0.033600	8934.5	9762.2	0.030700	0.29970	0.0100000	40.000	585.00	9416.5	-0.080237	251.98	-1.1534	197.15	-1.1534	3.2227	9416.5		
255.37	300.00	0.29980	0.032800	9140.2	9651.6	0.031000	0.29920	0.0100000	40.000	586.00	9418.9	-0.080003	253.30	0.17099	198.47	0.17099	2.4858	9418.9		
256.69	300.00	0.29970	0.031300	9575.1	8858.4	0.033900	0.30030	0.0100000	40.000	587.00	9422.4	-0.079664	254.62	4.8918	199.79	4.8918	1.9165	9422.4		
258.01	300.00	0.30050	0.031900	9420.1	9498.4	0.031500	0.29920	0.0100000	40.000	588.00	9431.1	-0.078816	255.94	5.2508	201.11	5.2508	1.0078	9431.1		
259.33	300.00	0.30110	0.032700	9208.0	9195.7	0.032700	0.30070	0.0100000	40.000	589.00	9442.8	-0.077675	257.26	0.42250	202.43	0.42250	-0.50548	9442.8		
260.65	300.00	0.30040	0.032200	9329.2	9353.1	0.032000	0.29930	0.0100000	40.000	590.00	9443.4	-0.077610	258.58	-5.6969	203.75	-5.6969	-3.4843	9443.4		
261.97	300.00	0.29950	0.032600	9187.1	9246.2	0.032500	0.30050	0.0100000	40.000	591.00	9419.0	-0.079994	259.90	-7.3955	205.08	-7.3955	-5.7461	9419.0		
263.29	300.00	0.30010	0.034200	8774.9	9819.7	0.030500	0.29950	0.0100000	40.000	592.00	9405.3	-0.081332	261.22	-10.002	206.40	-10.002	-6.8129	9405.3		
264.61	300.00	0.30040	0.034000	8835.3	9405.7	0.031800	0.29910	0.0100000	40.000	593.00	9413.0	-0.080585	262.54	-6.0580	207.72	-6.0580	-6.3475	9413.0		
265.93	300.00	0.29900	0.032100	9314.6	9100.3	0.032900	0.29940	0.0100000	40.000	594.00	9380.4	-0.083768	263.86	-4.9115	209.04	-4.9115	-3.4740	9380.4		
267.25	300.00	0.30000	0.032100	9345.8	8991.0	0.033300	0.29940	0.0100000	40.000	595.00	9391.5	-0.082684	265.19	-3.3698	210.36	-3.3698	0.40717	9391.5		
268.58	300.00	0.29990	0.032800	9143.3	9388.7	0.031900	0.29950	0.0100000	40.000	596.00	9383.6	-0.083451	266.51	6.9717	211.68	6.9717	4.2126	9383.6		
269.90	300.00	0.30080	0.030600	9830.1	9690.3	0.031000	0.30040	0.0100000	40.000	597.00	9389.1	-0.082918	267.83	9.4034	213.00	9.4034	7.3270	9389.1		
271.22	300.00	0.29980	0.030900	9702.3	9633.4	0.031100	0.29960	0.0100000	40.000	598.00	9427.6	-0.079153	269.15	12.969	214.32	12.969	9.0747	9427.6		
272.54	300.00	0.29950	0.030900	9692.6	9320.9	0.032100	0.29920	0.0100000	40.000	599.00	9431.6	-0.078767	270.47	10.660	215.64	10.660	7.5568	9431.6		
273.86	300.00	0.30050	0.031700	9479.5	9421.4	0.031800	0.29960	0.0100000	40.000	600.00	9448.0	-0.077159	271.79	5.3689	216.96	5.3689	4.1777	9448.0		
275.18	300.00	0.29990	0.030400	9865.1	9268.5	0.032400	0.30030	0.0100000	40.000	601.00	9449.3	-0.077037	273.11	-0.61769	218.29	-0.61769	0.45466	9449.3		
276.50	300.00	0.29970	0.032700	9165.1	9500.0	0.031600	0.30020	0.0100000	40.000	602.00	9454.2	-0.076554	274.43	-7.4920	219.61	-7.4920	-0.43367	9454.2		
277.82	300.00	0.30050	0.032200	9332.3	9503.2	0.031600	0.30030	0.0100000	40.000	603.00	9424.4	-0.079468	275.75	-5.6462	220.93	-5.6462	1.4932	9424.4		
279.14	300.00	0.29950	0.032200	9301.2	9018.1	0.033200	0.29940	0.0100000	40.000	604.00	9411.0	-0.080777	277.07	6.2186	222.25	6.2186	3.2214	9411.0		
280.46	300.00	0.30040	0.031100	9659.2	9594.2	0.031300	0.30030	0.0100000	40.000	605.00	9433.6	-0.078569	278.40	15.003	223.57	15.003	5.0952	9433.6		
281.79	300.00	0.29990	0.031700	9460.6	9597.4	0.031300	0.30040	0.0100000	40.000	606.00	9490.7	-0.072993	279.72	8.0235	224.89	8.0235	5.9823	9490.7		
283.11	300.00	0.30010	0.030800	9743.5	9766.2	0.030800	0.30080	0.0100000	40.000	607.00	9483.7	-0.073681	281.04	1.8771	226.21	1.8771	5.4366	9483.7		
284.43	300.00	0.30000	0.030300	9901.0	9667.7	0.031000	0.29970	0.0100000	40.000	608.00	9439.0	-0.078044	282.36	-1.2110	227.53	-1.2110	5.2216	9439.0		
285.75	300.00	0.30010	0.030900	9712.0	9581.5	0.031300	0.29990	0.0100000	40.000	609.00	9471.9	-0.074832	283.68	3.4902	228.85	3.4902	6.8506	9471.9		
287.07	300.00	0.29980	0.031500	9517.5	9541.4	0.031400	0.29960	0.0100000	40.000	610.00	9488.6	-0.073198	285.00	13.928	230.17	13.928	10.830	9488.6		
288.39	300.00	0.29930	0.034300	8725.9	9379.3	0.031900	0.29920	0.0100000	40.000	611.00	9481.9	-0.073852	286.32	16.169	231.50	16.169	16.676	9481.9		
289.71	300.00	0.29970	0.031400	9544.6	9350.0	0.032000	0.29920	0.0100000	40.000	612.00	9526.0	-0.069548	287.64	21.773	232.82	21.773	19.918	9526.0		
291.03	300.00	0.29940	0.030900	9689.3	9193.3	0.032600	0.29970	0.0100000	40.000	613.00	9560.0	-0.066226	288.96	28.018	234.14	28.018	18.969	9560.0		
292.35	300.00	0.30020	0.032300	9294.1	9124.2	0.033000	0.30110	0.0100000	40.000	614.00	9593.4	-0.062966	290.28	19.701	235.46	19.701	15.968	9593.4		
293.67	300.00	0.30050	0.031500	9539.7	9575.1	0.031300	0.29970	0.0100000	40.000	615.00	9633.2	-0.059069	291.61	9.1862	236.78	9.1862	10.253	9633.2		
294.99	300.00	0.29990	0.029800	10064	10190	0.029500	0.30060	0.0100000	40.000	616.00	9619.4	-0.060418	292.93	1.1643	238.10	1.1643	3.3150	9619.4		
296.32	300.00	0.29860	0.032800	9103.7	9240.7	0.032400	0.29940	0.0100000	40.000	617.00	9607.6	-0.061574	294.25	-6.8038	239.42	-6.8038	-1.5412	9607.6		
297.64	300.00	0.30010	0.031200	9618.6	8752.2	0.034300	0.30020	0.0100000	40.000	618.00	9613.9	-0.060962	295.57	-6.6725	240.74	-6.6725	-3.3522	9613.9		
298.96	300.00	0.30030	0.029700	10111	10324	0.029000	0.29940	0.0100000	40.000	619.00	9591.1	-0.063186	296.89	-4.5803	242.06	-4.5803	-2.3486	9591.1		
300.28	300.00	0.30000	0.032700	9174.3	9672.0	0.031100	0.30080	0.0100000	40.000	620.00	9583.6	-0.063916	298.21	0.13109	243.38	0.13109	0.95498	9583.6		
301.60	300.00	0.30020	0.031500	9530.2	9280.9	0.032400	0.30070	0.0100000	40.000	621.00	9592.5	-0.063052	299.53	6.1824	244.70	6.1824	4.6188	9592.5		
302.92	300.00	0.30000	0.032000	9375.0	10194	0.029400	0.29970	0.0100000	40.000	622.00	9614.0	-0.060945	300.85	9.7142	246.03	9.7142	8.0350	9614.0		
304.24	300.00	0.29920	0.031800	9408.8	10214	0.029400	0.30030	0.0100000	40.000	623.00	9616.7	-0.060683	302.17	11.647	247.35	11.647	9.0770	9616.7		
305.56	300.00	0.29950	0.030200	9917.2	10204	0.029400	0.30000	0.0100000	40.000	624.00	9635.7	-0.058833	303.49	12.500	248.67	12.500	7.5624	9635.7		
306.88	300.00	0.30070	0.030400	9891.4	9855.7	0.030500	0.30060	0.0100000	40.000	625.00	9658.6	-0.056594	304.82	5.3409	249.99	5.3409	5.4307	9658.6		
308.20	300.00	0.29970	0.029800	10057	9304.3	0.032200	0.29960	0.0100000	40.000	626.00	9675.7	-0.054925	306.14	-1.3902	251.31	-1.3902	2.0749	9675.7		
309.53	300.00	0.29970	0.027200	11018	9348.9	0.032100	0.30010	0.0100000	40.000	627.00	9632.0	-0.059192	307.46	-0.94460	252.63	-0.94460	-2.2134	9632.0		
310.85	300.00	0.29980	0.029800	10060	9897.7	0.030300	0.29990	0.0100000	40.000	628.00	9639.8	-0.058431	308.78	-5.1321	253.95	-5.1321	-5.9308	9639.8		
312.17	300.00	0.30080	0.029700	10128	9189.6	0.032700	0.30050	0.0100000	40.000	629.00	9670.3	-0.055450	310.10	-8.9409	255.27	-8.9408	-8.3593	9670.3		
313.49	300.00	0.30070	0.030900	9731.4	9424.5	0.031800	0.29970	0.0100000	40.000	630.00	9622.6	-0.060107	311.42	-13.246	256.59	-13.246	-9.4629	9622.6		
314.81	300.00	0.29970	0.030800	9730.5	9727.3	0.030800	0.29960	0.0100000	40.000	631.00	9581.5	-0.064121	312.74	-13.533	257.91	-13.533	-8.6548	9581.5		
316.13	300.00	0.30000	0.031500	9523.8	9832.2	0.030400	0.29890	0.0100000	40.000	632.00	9596.7	-0.062640	314.06	-6.4626	259.23	-6.4626	-7.4957	9596.7		
317.45	300.00	0.30040	0.030200	9947.0	9406.2	0.032000	0.30100	0.0100000	40.000	633.00	9593.9	-0.062913	315.38	-1.0912	260.56	-1.0912	-4.4668	9593.9		
318.77	300.00	0.30000	0.030400	9868.4	9591.1	0.031300	0.30020	0.0100000	40.000	634.00	9573.8	-0.064880	316.70	-3.1455	261.88	-3.1455	-0.46961	9573.8		
320.09	300.00	0.29970	0.031100	9636.7	9605.8	0.031200	0.29970	0.0100000	40.000	635.00	9585.8	-0.063706	318.02	1.8983	263.20	1.8983	1.4510	9585.8		
321.41	300.00	0.30040	0.031900	9416.9	9933.8	0.030200	0.30000	0.0100000	40.000	636.00	9580.0	-0.064273	319.34	6.4529	264.52	6.4529	3.0337	9580.0		
322.73	300.00	0.30030	0.030300	9910.9	9272.4	0.032300	0.29950	0.0100000	40.000	637.00	9603.3	-0.061992	320.67	3.1406	265.84	3.1406	5.0789	9603.3		
324.06	300.00	0.29890	0.033100	9030.2	9404.4	0.031900	0.30000	0.0100000	40.000	638.00	9607.6	-0.061574	321.99	6.8221	267.16	6.8221	6.6982	9607.6		
325.38	300.00	0.29960	0.030900	9695.8	9393.1	0.031800	0.29870	0.0100000	40.000	639.00	9592.7	-0.063029	323.31	7.0808	268.48	7.0808	6.5819	9592.7		
326.70	300.00	0.30080	0.031200	9641.0	9323.0	0.032200	0.30020	0.0100000	40.000	640.00	9630.3	-0.059353	324.63	9.9944	269.80	9.9944	5.6479	9630.3		
328.02	300.00	0.30010	0.031300	9587.9	8808.8	0.034000	0.29950	0.0100000	40.000	641.00	9638.7	-0.058534	325.95	5.8715	271.12	5.8715	3.7431	9638.7		
329.34	300.00	0.29960	0.032000	9362.5	9599.4	0.031200	0.29950	0.0100000	40.000	642.00	9650.6	-0.057374	327.27	-1.5293	272.44	-1.5293	1.4818	9650.6		
330.66	300.00	0.29920	0.031700	9438.5	10135	0.029600	0.30000	0.0100000	40.000	643.00	9621.3	-0.060232	328.59	-2.7022	273.77	-2.7022	-1.4247	9621.3		
331.98	300.00	0.30050	0.033100	9078.5	9791.5	0.030700	0.30060	0.0100000	40.000	644.00	9628.9	-0.059491	329.91	-4.2254	275.09	-4.2254	-3.3722	9628.9		
333.30	300.00	0.29950	0.031800	9418.2	10456	0.028700	0.30010	0.0100000	40.000	645.00	9631.7	-0.059219	331.23	-4.5379	276.41	-4.5379	-2.8468	9631.7		
334.62	300.00	0.29960	0.032600	9190.2	9733.8	0.030800	0.29980	0.0100000	40.000	646.00	9617.5	-0.060607	332.55	-3.8661	277.73	-3.8661	-1.6186	9617.5		
335.94	300.00	0.30090	0.030400	9898.0	9794.8	0.030700	0.30070	0.0100000	40.000	647.00	9597.1	-0.062602	333.88	1.0978	279.05	1.0978	1.0644	9597.1		
337.27	300.00	0.29960	0.031500	9511.1	9438.9	0.031900	0.30110	0.0100000	40.000	648.00	9620.7	-0.060294	335.20	3.4388	280.37	3.4388	5.2514	9620.7		
338.59	300.00	0.30130	0.030900	9750.8	9584.7	0.031300	0.30000	0.0100000	40.000	649.00	9637.4	-0.058667	336.52	9.1894	281.69	9.1894	10.791	9637.4		
339.91	300.00	0.29990	0.033400	8979.0	9980.0	0.030000	0.29940	0.0100000	40.000	650.00	9620.1	-0.060356	337.84	16.397	283.01	16.397	15.701	9620.1		
341.23	300.00	0.30000	0.032700	9174.3	9600.6	0.031300	0.30050	0.0100000	40.000	651.00	9658.1	-0.056643	339.16	23.831	284.33	23.831	18.420	9658.1		
342.55	300.00	0.29930	0.030000	9976.7	9976.7	0.030100	0.30030	0.0100000	40.000	652.00	9718.6	-0.050728	340.48	25.650	285.65	25.650	16.181	9718.6		
343.87	300.00	0.30070	0.031300	9607.0	9217.8	0.032600	0.30050	0.0100000	40.000	653.00	9745.5	-0.048108	341.80	17.030	286.97	17.030	11.375	9745.5		
345.19	300.00	0.30040	0.031500	9536.5	9565.5	0.031300	0.29940	0.0100000	40.000	654.00	9745.8	-0.048076	343.12	-2.0040	288.30	-2.0040	5.5890	9745.8		
346.51	300.00	0.29940	0.028900	10360	9649.5	0.031100	0.30010	0.0100000	40.000	655.00	9757.0	-0.046983	344.44	-7.6345	289.62	-7.6345	0.057794	9757.0		
347.83	300.00	0.29960	0.032400	9246.9	9307.5	0.032200	0.29970	0.0100000	40.000	656.00	9699.7	-0.052583	345.76	-5.0967	290.94	-5.0967	-2.0858	9699.7		
349.15	300.00	0.29970	0.032000	9365.6	9504.8	0.031500	0.29940	0.0100000	40.000	657.00	9718.1	-0.050779	347.08	-2.0061	292.26	-2.0061	-2.0971	9718.1		
350.47	300.00	0.30030	0.030700	9781.8	9768.7	0.030700	0.29990	0.0100000	40.000	658.00	9731.6	-0.049466	348.41	6.3120	293.58	6.3120	-0.49613	9731.6		
351.80	300.00	0.29950	0.029400	10187	9754.0	0.030900	0.30140	0.0100000	40.000	659.00	9727.8	-0.049835	349.73	-2.0600	294.90	-2.0600	0.64462	9727.8		
353.12	300.00	0.29860	0.031500	9479.4	9030.1	0.033200	0.29980	0.0100000	40.000	660.00	9736.5	-0.048983	351.05	0.37009	296.22	0.37009	2.0464	9736.5		
354.44	300.00	0.29990	0.031600	9490.5	10121	0.029700	0.30060	0.0100000	40.000	661.00	9702.0	-0.052350	352.37	0.60703	297.54	0.60703	3.4200	9702.0		
355.76	300.00	0.30030	0.031200	9625.0	10081	0.029800	0.30040	0.0100000	40.000	662.00	9746.9	-0.047970	353.69	5.0031	298.86	5.0031	6.0838	9746.9		
357.08	300.00	0.30030	0.031200	9625.0	10163	0.029500	0.29980	0.0100000	40.000	663.00	9726.6	-0.049950	355.01	13.180	300.18	13.180	9.9974	9726.6		
358.40	300.00	0.29900	0.033100	9033.2	10142	0.029600	0.30020	0.0100000	40.000	664.00	9757.3	-0.046955	356.33	11.259	301.51	11.259	13.036	9757.3		
359.72	300.00	0.30060	0.032000	9393.8	10027	0.030000	0.30080	0.0100000	40.000	665.00	9783.9	-0.044354	357.65	19.938	302.83	19.938	12.883	9783.9		
361.04	300.00	0.30000	0.031000	9677.4	9252.3	0.032500	0.30070	0.0100000	40.000	666.00	9792.6	-0.043504	358.97	15.800	304.15	15.800	9.2126	9792.6		
362.36	300.00	0.29930	0.031200	9592.9	10122	0.029600	0.29960	0.0100000	40.000	667.00	9840.6	-0.038813	360.29	4.2398	305.47	4.2398	5.9677	9840.6		
363.68	300.00	0.30070	0.031900	9426.3	10077	0.029800	0.30030	0.0100000	40.000	668.00	9833.3	-0.039533	361.62	-5.1739	306.79	-5.1739	3.0725	9833.3		
365.01	300.00	0.30140	0.031000	9722.6	9359.4	0.032000	0.29950	0.0100000	40.000	669.00	9791.6	-0.043605	362.94	-4.9651	308.11	-4.9651	2.0486	9791.6		
366.33	300.00	0.29900	0.029100	10275	9768.0	0.030600	0.29890	0.0100000	40.000	670.00	9783.0	-0.044446	364.26	5.4620	309.43	5.4620	1.1754	9783.0		
367.65	300.00	0.30030	0.032800	9155.5	9256.2	0.032400	0.29990	0.0100000	40.000	671.00	9833.0	-0.039559	365.58	10.680	310.75	10.680	-0.24683	9833.0		
368.97	300.00	0.29970	0.029700	10091	10542	0.028400	0.29940	0.0100000	40.000	672.00	9848.6	-0.038032	366.90	-0.12601	312.07	-0.12601	-2.2228	9848.6		
370.29	300.00	0.29990	0.028100	10673	9551.0	0.031400	0.29990	0.0100000	40.000	673.00	9829.3	-0.039922	368.22	-12.285	313.39	-12.285	-3.9998	9829.3		
371.61	300.00	0.30000	0.029500	10169	9861.8	0.030400	0.29980	0.0100000	40.000	674.00	9784.0	-0.044346	369.54	-14.845	314.71	-14.845	-6.5307	9784.0		
372.93	300.00	0.29940	0.031500	9504.8	10125	0.029700	0.30070	0.0100000	40.000	675.00	9784.2	-0.044328	370.86	-3.4227	316.04	-3.4227	-7.2335	9784.2		
374.25	300.00	0.29930	0.029500	10146	9832.2	0.030400	0.29890	0.0100000	40.000	676.00	9773.1	-0.045406	372.18	-1.9742	317.36	-1.9742	-4.6183	9773.1		
375.57	300.00	0.29990	0.031200	9612.2	10316	0.029100	0.30020	0.0100000	40.000	677.00	9812.1	-0.041600	373.50	-3.6404	318.68	-3.6404	-1.1635	9812.1		
376.89	300.00	0.29990	0.031600	9490.5	9350.0	0.032000	0.29920	0.0100000	40.000	678.00	9757.0	-0.046983	374.82	0.79114	320.00	0.79114	1.8875	9757.0		
378.21	300.00	0.30080	0.031100	9672.0	8893.2	0.033700	0.29970	0.0100000	40.000	679.00	9768.2	-0.045888	376.15	2.4286	321.32	2.4286	3.6100	9768.2		
379.54	300.00	0.29910	0.028200	10606	9573.2	0.031400	0.30060	0.0100000	40.000	680.00	9800.3	-0.042752	377.47	11.832	322.64	11.832	4.3823	9800.3		
380.86	300.00	0.30030	0.032200	9326.1	10081	0.029700	0.29940	0.0100000	40.000	681.00	9806.5	-0.042149	378.79	6.6383	323.96	6.6383	4.5563	9806.5		
382.18	300.00	0.29840	0.028900	10325	10449	0.028700	0.29990	0.0100000	40.000	682.00	9816.0	-0.041219	380.11	0.22116	325.28	0.22116	3.7928	9816.0		
383.50	300.00	0.29930	0.028800	10392	9674.2	0.031000	0.29990	0.0100000	40.000	683.00	9804.2	-0.042371	381.43	1.6614	326.60	1.6614	0.57029	9804.2		
384.82	300.00	0.29910	0.031300	9555.9	9211.7	0.032600	0.30030	0.0100000	40.000	684.00	9802.9	-0.042498	382.75	-1.3892	327.92	-1.3892	-2.6412	9802.9		
386.14	300.00	0.29900	0.030800	9707.8	10146	0.029500	0.29930	0.0100000	40.000	685.00	9824.0	-0.040437	384.07	-4.2802	329.25	-4.2802	-3.8296	9824.0		
387.46	300.00	0.29980	0.029900	10027	9794.8	0.030700	0.30070	0.0100000	40.000	686.00	9796.9	-0.043082	385.39	-9.4193	330.57	-9.4193	-1.2605	9796.9		
388.78	300.00	0.30050	0.027900	10771	10071	0.029700	0.29910	0.0100000	40.000	687.00	9778.9	-0.044841	386.71	-5.7208	331.89	-5.7208	5.3174	9778.9		
390.10	300.00	0.29980	0.031600	9487.3	8964.2	0.033500	0.30030	0.0100000	40.000	688.00	9763.2	-0.046373	388.03	14.507	333.21	14.507	12.272	9763.2		
391.42	300.00	0.29950	0.032900	9103.3	10313	0.029100	0.30010	0.0100000	40.000	689.00	9803.1	-0.042483	389.36	31.500	334.53	31.500	16.481	9803.1		
392.75	300.00	0.30070	0.031300	9607.0	10034	0.029800	0.29900	0.0100000	40.000	690.00	9880.7	-0.034903	390.68	30.492	335.85	30.492	16.439	9880.7		
394.07	300.00	0.30010	0.030200	9937.1	9897.7	0.030300	0.29990	0.0100000	40.000	691.00	9928.2	-0.030255	392.00	11.627	337.17	11.627	13.051	9928.2		
395.39	300.00	0.30060	0.030000	10020	9456.0	0.031800	0.30070	0.0100000	40.000	692.00	9902.0	-0.032817	393.32	-5.9315	338.49	-5.9315	7.7023	9902.0		
396.71	300.00	0.29990	0.030400	9865.1	10295	0.029200	0.30060	0.0100000	40.000	693.00	9869.2	-0.036025	394.64	-2.4333	339.81	-2.4333	4.4172	9869.2		
398.03	300.00	0.29900	0.029100	10275	9523.8	0.031500	0.30000	0.0100000	40.000	694.00	9871.0	-0.035845	395.96	4.7576	341.13	4.7576	5.1851	9871.0		
399.35	300.00	0.30020	0.028800	10424	10305	0.029200	0.30090	0.0100000	40.000	695.00	9927.7	-0.030311	397.28	14.066	342.45	14.066	9.9356	9927.7		
400.67	300.00	0.30020	0.029800	10074	9555.9	0.031300	0.29910	0.0100000	40.000	696.00	9904.2	-0.032604	398.60	15.467	343.78	15.467	13.542	9904.2		
401.99	300.00	0.29990	0.032800	9143.3	9454.3	0.031700	0.29970	0.0100000	40.000	697.00	9945.5	-0.028571	399.92	17.821	345.10	17.821	14.487	9945.5		
403.31	300.00	0.30030	0.028900	10391	9986.7	0.030000	0.29960	0.0100000	40.000	698.00	9964.3	-0.026737	401.24	15.600	346.42	15.600	12.342	9964.3		
404.63	300.00	0.30020	0.029600	10142	10186	0.029500	0.30050	0.0100000	40.000	699.00	10015	-0.021748	402.56	9.4809	347.74	9.4809	9.2062	10015		
405.95	300.00	0.29930	0.028300	10576	10523	0.028500	0.29990	0.0100000	40.000	700.00	9972.3	-0.025952	403.89	3.3415	349.06	3.3415	6.4898	9972.3		
407.28	300.00	0.30030	0.031600	9503.2	10572	0.028300	0.29920	0.0100000	40.000	701.00	10004	-0.022847	405.21	-0.21263	350.38	-0.21263	4.2819	10004		
408.60	300.00	0.30000	0.029600	10135	9530.2	0.031500	0.30020	0.0100000	40.000	702.00	9992.0	-0.024032	406.53	4.2392	351.70	4.2392	2.9513	9992.0		
409.92	300.00	0.29970	0.032600	9193.3	9759.7	0.030800	0.30060	0.0100000	40.000	703.00	10004	-0.022845	407.85	4.5603	353.02	4.5603	1.9134	10004		
411.24	300.00	0.29910	0.030300	9871.3	9712.9	0.031000	0.30110	0.0100000	40.000	704.00	10000	-0.023218	409.17	2.8278	354.34	2.8278	1.3933	10000		
412.56	300.00	0.30130	0.030200	9976.8	10401	0.028900	0.30060	0.0100000	40.000	705.00	10030	-0.020312	410.49	-1.8476	355.66	-1.8476	-0.22681	10030		
413.88	300.00	0.30020	0.031300	9591.1	9652.7	0.031100	0.30020	0.0100000	40.000	706.00	9997.7	-0.023474	411.81	-2.8132	356.98	-2.8132	-0.74437	9997.7		
415.20	300.00	0.29890	0.029200	10236	10662	0.028100	0.29960	0.0100000	40.000	707.00	9993.2	-0.023910	413.13	-3.8613	358.31	-3.8613	-2.0872	9993.2		
416.52	300.00	0.29900	0.028100	10641	10465	0.028600	0.29930	0.0100000	40.000	708.00	10000	-0.023235	414.45	1.9725	359.63	1.9725	-4.8488	10000		
417.84	300.00	0.29990	0.030800	9737.0	10037	0.029900	0.30010	0.0100000	40.000	709.00	10003	-0.022923	415.77	-3.8865	360.95	-3.8865	-7.8706	10003		
419.16	300.00	0.29980	0.030000	9993.3	9408.8	0.031800	0.29920	0.0100000	40.000	710.00	10006	-0.022695	417.10	-15.656	362.27	-15.656	-9.8396	10006		
420.48	300.00	0.30040	0.027700	10845	10701	0.028100	0.30070	0.0100000	40.000	711.00	9964.8	-0.026687	418.42	-17.922	363.59	-17.922	-9.7093	9964.8		
421.81	300.00	0.30000	0.032000	9375.0	9643.1	0.031100	0.29990	0.0100000	40.000	712.00	9916.0	-0.031453	419.74	-13.707	364.91	-13.707	-6.3701	9916.0		
423.13	300.00	0.30030	0.032300	9297.2	9711.0	0.030800	0.29910	0.0100000	40.000	713.00	9929.8	-0.030106	421.06	2.6243	366.23	2.6243	-1.2902	9929.8		
424.45	300.00	0.29930	0.031400	9531.8	10214	0.029400	0.30030	0.0100000	40.000	714.00	9932.6	-0.029828	422.38	12.810	367.55	12.810	3.0792	9932.6		
425.77	300.00	0.29900	0.032400	9228.4	10149	0.029600	0.30040	0.0100000	40.000	715.00	9973.8	-0.025806	423.70	9.7436	368.87	9.7436	3.1704	9973.8		
427.09	300.00	0.30100	0.030900	9741.1	9625.0	0.031200	0.30030	0.0100000	40.000	716.00	9978.6	-0.025339	425.02	3.9251	370.19	3.9251	-2.1030	9978.6		
428.41	300.00	0.29950	0.030700	9755.7	9462.3	0.031800	0.30090	0.0100000	40.000	717.00	9971.2	-0.026065	426.34	-13.251	371.52	-13.251	-8.0316	9971.2		
429.73	300.00	0.29990	0.031000	9674.2	9599.4	0.031200	0.29950	0.0100000	40.000	718.00	9959.9	-0.027166	427.66	-23.743	372.84	-23.743	-10.675	9959.9		
431.05	300.00	0.30090	0.027300	11022	10054	0.029800	0.29960	0.0100000	40.000	719.00	9895.6	-0.033441	428.98	-16.833	374.16	-16.833	-7.7248	9895.6		
432.37	300.00	0.30170	0.032200	9369.6	10235	0.029300	0.29990	0.0100000	40.000	720.00	9859.5	-0.036968	430.30	-3.4714	375.48	-3.4714	0.53417	9859.5		
433.69	300.00	0.30020	0.028900	10388	9664.5	0.031000	0.29960	0.0100000	40.000	721.00	9910.2	-0.032023	431.63	18.674	376.80	18.674	9.4910	9910.2		
435.02	300.00	0.29840	0.029700	10047	9547.8	0.031400	0.29980	0.0100000	40.000	722.00	9929.7	-0.030115	432.95	28.044	378.12	28.044	15.652	9929.7		
436.34	300.00	0.30010	0.028700	10456	9819.7	0.030500	0.29950	0.0100000	40.000	723.00	9983.9	-0.024821	434.27	21.041	379.44	21.041	18.224	9983.9		
437.66	300.00	0.29970	0.031400	9544.6	9819.7	0.030500	0.29950	0.0100000	40.000	724.00	10008	-0.022477	435.59	13.974	380.76	13.974	17.224	10008		
438.98	300.00	0.29920	0.032100	9320.9	10577	0.028400	0.30040	0.0100000	40.000	725.00	10010	-0.022267	436.91	9.3878	382.08	9.3878	15.382	10010		
440.30	300.00	0.30030	0.032000	9384.4	10502	0.028500	0.29930	0.0100000	40.000	726.00	10009	-0.022377	438.23	13.672	383.40	13.672	15.238	10009		
441.62	300.00	0.30090	0.029600	10166	9496.8	0.031600	0.30010	0.0100000	40.000	727.00	10045	-0.018814	439.55	18.836	384.72	18.836	15.075	10045		
442.94	300.00	0.30030	0.029900	10043	10425	0.028700	0.29920	0.0100000	40.000	728.00	10081	-0.015383	440.87	20.321	386.05	20.321	14.567	10081		
444.26	300.00	0.29970	0.031200	9605.8	9115.9	0.032800	0.29900	0.0100000	40.000	729.00	10099	-0.013612	442.19	13.161	387.37	13.161	13.873	10099		
445.58	300.00	0.30000	0.030400	9868.4	9278.6	0.032300	0.29970	0.0100000	40.000	730.00	10116	-0.011869	443.51	6.8447	388.69	6.8447	12.626	10116		
446.90	300.00	0.30020	0.030300	9907.6	10472	0.028600	0.29950	0.0100000	40.000	731.00	10114	-0.012081	444.83	10.201	390.01	10.201	11.005	10114		
448.22	300.00	0.29990	0.029300	10235	11111	0.027000	0.30000	0.0100000	40.000	732.00	10118	-0.011733	446.16	12.601	391.33	12.601	9.5406	10118		
449.55	300.00	0.29900	0.031100	9614.1	10781	0.027900	0.30080	0.0100000	40.000	733.00	10165	-0.0070998	447.48	12.216	392.65	12.216	6.1124	10165		
450.87	300.00	0.30050	0.029000	10362	10215	0.029300	0.29930	0.0100000	40.000	734.00	10174	-0.0062299	448.80	5.8403	393.97	5.8403	1.5033	10174		
452.19	300.00	0.30090	0.029000	10376	10259	0.029300	0.30060	0.0100000	40.000	735.00	10167	-0.0069515	450.12	-10.296	395.29	-10.296	-3.5134	10167		
453.51	300.00	0.30000	0.029100	10309	10125	0.029600	0.29970	0.0100000	40.000	736.00	10156	-0.0080390	451.44	-12.845	396.61	-12.845	-7.5413	10156		
454.83	300.00	0.29900	0.031400	9522.3	10391	0.028900	0.30030	0.0100000	40.000	737.00	10107	-0.012838	452.76	-12.482	397.93	-12.482	-7.8211	10107		
456.15	300.00	0.30040	0.031300	9597.4	10200	0.029500	0.30090	0.0100000	40.000	738.00	10120	-0.011573	454.08	-7.9235	399.26	-7.9235	-5.0082	10120		
457.47	300.00	0.30010	0.029300	10242	9980.0	0.030000	0.29940	0.0100000	40.000	739.00	10102	-0.013237	455.40	4.4413	400.58	4.4413	-3.2202	10102		
458.79	300.00	0.29960	0.028800	10403	10429	0.028700	0.29930	0.0100000	40.000	740.00	10105	-0.012951	456.72	3.7681	401.90	3.7681	-3.5262	10105		
460.11	300.00	0.30040	0.028000	10729	10190	0.029500	0.30060	0.0100000	40.000	741.00	10143	-0.0092836	458.04	-3.9048	403.22	-3.9048	-6.8495	10143		
461.43	300.00	0.30090	0.029800	10097	9739.4	0.030700	0.29900	0.0100000	40.000	742.00	10124	-0.011119	459.37	-14.012	404.54	-14.012	-11.675	10124		
462.76	300.00	0.29950	0.029100	10292	10544	0.028500	0.30050	0.0100000	40.000	743.00	10067	-0.016672	460.69	-24.540	405.86	-24.540	-14.570	10067		
464.08	300.00	0.30030	0.030900	9718.4	10007	0.029800	0.29820	0.0100000	40.000	744.00	10051	-0.018297	462.01	-19.684	407.18	-19.684	-16.485	10051		
465.40	300.00	0.29960	0.029700	10088	9664.5	0.031000	0.29960	0.0100000	40.000	745.00	10018	-0.021526	463.33	-10.709	408.50	-10.709	-16.065	10018		
466.72	300.00	0.30150	0.029300	10290	10344	0.029100	0.30100	0.0100000	40.000	746.00	10019	-0.021390	464.65	-13.480	409.82	-13.480	-13.306	10019		
468.04	300.00	0.30040	0.029000	10359	9470.0	0.031700	0.30020	0.0100000	40.000	747.00	10012	-0.022034	465.97	-11.915	411.14	-11.915	-11.708	10012		
469.36	300.00	0.30060	0.029500	10190	9768.7	0.030700	0.29990	0.0100000	40.000	748.00	9964.2	-0.026739	467.29	-10.744	412.46	-10.744	-9.8514	9964.2		
470.68	300.00	0.30040	0.029900	10047	10067	0.029700	0.29900	0.0100000	40.000	749.00	9966.3	-0.026538	468.61	-11.692	413.79	-11.692	-5.3095	9966.3		
472.00	300.00	0.29890	0.030500	9800.0	9177.4	0.032700	0.30010	0.0100000	40.000	750.00	9971.1	-0.026069	469.93	-1.4263	415.11	-1.4263	-0.84192	9971.1		
473.32	300.00	0.29970	0.029500	10159	10067	0.029800	0.30000	0.0100000	40.000	751.00	9931.8	-0.029911	471.25	9.2295	416.43	9.2295	4.0286	9931.8		
474.64	300.00	0.30000	0.027300	10989	10077	0.029700	0.29930	0.0100000	40.000	752.00	9972.1	-0.025973	472.58	10.423	417.75	10.423	8.1646	9972.1		
475.96	300.00	0.29990	0.028400	10560	9917.2	0.030200	0.29950	0.0100000	40.000	753.00	10027	-0.020632	473.90	13.608	419.07	13.608	8.3569	10027		
477.29	300.00	0.29960	0.030800	9727.3	10432	0.028700	0.29940	0.0100000	40.000	754.00	9992.4	-0.023985	475.22	8.9883	420.39	8.9883	7.6550	9992.4		
478.61	300.00	0.29990	0.029800	10064	9520.6	0.031500	0.29990	0.0100000	40.000	755.00	10011	-0.022127	476.54	-0.46501	421.71	-0.46501	7.1066	10011		
479.93	300.00	0.29880	0.030300	9861.4	10289	0.029100	0.29940	0.0100000	40.000	756.00	10039	-0.019427	477.86	5.7204	423.03	5.7204	4.7235	10039		
481.25	300.00	0.30080	0.030800	9766.2	9986.7	0.030100	0.30060	0.0100000	40.000	757.00	10000	-0.023211	479.18	7.6809	424.35	7.6809	4.9354	10000		
482.57	300.00	0.30030	0.030400	9878.3	9379.3	0.031900	0.29920	0.0100000	40.000	758.00	10036	-0.019753	480.50	1.6931	425.67	1.6931	6.6470	10036		
483.89	300.00	0.30110	0.031400	9589.2	10243	0.029200	0.29910	0.0100000	40.000	759.00	10064	-0.017009	481.82	10.048	427.00	10.048	6.8446	10064		
485.21	300.00	0.30040	0.034100	8809.4	10081	0.029700	0.29940	0.0100000	40.000	760.00	10019	-0.021436	483.14	8.0931	428.32	8.0931	7.1210	10019		
486.53	300.00	0.30100	0.029800	10101	9602.6	0.031200	0.29960	0.0100000	40.000	761.00	10075	-0.015888	484.46	6.7085	429.64	6.7085	5.3212	10075		
487.85	300.00	0.30060	0.030600	9823.5	11037	0.027300	0.30130	0.0100000	40.000	762.00	10083	-0.015092	485.78	9.0625	430.96	9.0625	0.97157	10083		
489.17	300.00	0.30070	0.031300	9607.0	10888	0.027600	0.30050	0.0100000	40.000	763.00	10076	-0.015853	487.11	-7.3056	432.28	-7.3056	-2.8447	10076		
490.49	300.00	0.29930	0.026900	11126	9823.0	0.030500	0.29960	0.0100000	40.000	764.00	10078	-0.015607	488.43	-11.701	433.60	-11.701	-4.9435	10078		
491.82	300.00	0.30070	0.028600	10514	10406	0.028800	0.29970	0.0100000	40.000	765.00	10030	-0.020343	489.75	-10.988	434.92	-10.988	-3.4477	10030		
493.14	300.00	0.30010	0.029500	10173	10245	0.029400	0.30120	0.0100000	40.000	766.00	10029	-0.020395	491.07	-3.7854	436.24	-3.7854	2.5097	10029		
494.46	300.00	0.29990	0.029600	10132	9530.2	0.031500	0.30020	0.0100000	40.000	767.00	10028	-0.020547	492.39	16.541	437.56	16.541	8.4674	10028		
495.78	300.00	0.29910	0.029300	10208	10214	0.029500	0.30130	0.0100000	40.000	768.00	10054	-0.017947	493.71	22.481	438.88	22.481	14.166	10054		
497.10	300.00	0.29970	0.030300	9891.1	10359	0.029000	0.30040	0.0100000	40.000	769.00	10126	-0.010897	495.03	18.088	440.20	18.088	16.600	10126		
498.42	300.00	0.29920	0.029400	10177	9115.5	0.032900	0.29990	0.0100000	40.000	770.00	10128	-0.010718	496.35	17.504	441.53	17.504	13.970	10128		
499.74	300.00	0.30020	0.031000	9683.9	10370	0.028900	0.29970	0.0100000	40.000	771.00	10110	-0.012493	497.67	8.3868	442.85	8.3868	10.984	10110		
501.06	300.00	0.29930	0.030800	9717.5	10238	0.029400	0.30100	0.0100000	40.000	772.00	10178	-0.0058569	498.99	3.3884	444.17	3.3884	7.0542	10178		
502.38	300.00	0.30070	0.027000	11137	9913.9	0.030200	0.29940	0.0100000	40.000	773.00	10157	-0.0079173	500.31	7.5520	445.49	7.5520	4.0331	10157		
503.70	300.00	0.30090	0.031400	9582.8	9970.1	0.030100	0.30010	0.0100000	40.000	774.00	10127	-0.010820	501.64	-1.5605	446.81	-1.5605	4.2380	10127		
505.02	300.00	0.29960	0.031500	9511.1	9413.8	0.031900	0.30030	0.0100000	40.000	775.00	10185	-0.0051397	502.96	2.3987	448.13	2.3987	4.6327	10185		
506.35	300.00	0.30030	0.030600	9813.7	9509.5	0.031600	0.30050	0.0100000	40.000	776.00	10154	-0.0082524	504.28	9.4115	449.45	9.4115	4.3180	10154		
507.67	300.00	0.29940	0.029200	10253	10256	0.029300	0.30050	0.0100000	40.000	777.00	10160	-0.0076533	505.60	5.3617	450.77	5.3617	6.7321	10160		
508.99	300.00	0.30040	0.028100	10690	10546	0.028400	0.29950	0.0100000	40.000	778.00	10202	-0.0034908	506.92	5.9785	452.09	5.9785	7.2790	10202		
510.31	300.00	0.29920	0.027200	11000	10895	0.027600	0.30070	0.0100000	40.000	779.00	10196	-0.0040613	508.24	10.510	453.41	10.510	7.2033	10196		
511.63	300.00	0.29930	0.027900	10728	10282	0.029100	0.29920	0.0100000	40.000	780.00	10175	-0.0061913	509.56	5.1330	454.74	5.1330	8.7322	10175		
512.95	300.00	0.29910	0.028100	10644	9699.0	0.030900	0.29970	0.0100000	40.000	781.00	10243	0.00047750	510.88	9.0329	456.06	9.0329	8.8882	10243		
514.27	300.00	0.30050	0.029400	10221	11029	0.027200	0.30000	0.0100000	40.000	782.00	10213	-0.0024488	512.20	13.006	457.38	13.006	11.988	10213		
515.59	300.00	0.30060	0.030300	9920.8	10594	0.028300	0.29980	0.0100000	40.000	783.00	10237	-0.00010531	513.52	6.7585	458.70	6.7585	18.479	10237		
516.91	300.00	0.29940	0.030500	9816.4	10264	0.029200	0.29970	0.0100000	40.000	784.00	10263	0.0024907	514.85	26.008	460.02	26.008	24.783	10263		
518.24	300.00	0.29950	0.029900	10017	11044	0.027200	0.30040	0.0100000	40.000	785.00	10262	0.0023680	516.17	37.588	461.34	37.588	28.237	10262		
519.56	300.00	0.29970	0.029500	10159	9737.0	0.030800	0.29990	0.0100000	40.000	786.00	10372	0.013094	517.49	40.554	462.66	40.554	28.109	10372		
520.88	300.00	0.29840	0.027700	10773	10374	0.028900	0.29980	0.0100000	40.000	787.00	10431	0.018843	518.81	30.274	463.98	30.274	22.080	10431		
522.20	300.00	0.30070	0.029600	10159	10425	0.028700	0.29920	0.0100000	40.000	788.00	10447	0.020413	520.13	6.1200	465.30	6.1200	14.777	10447		
523.52	300.00	0.29990	0.030000	9996.7	10091	0.029700	0.29970	0.0100000	40.000	789.00	10425	0.018235	521.45	-4.1379	466.62	-4.1379	7.8725	10425		
524.84	300.00	0.29980	0.030400	9861.8	9900.7	0.030200	0.29900	0.0100000	40.000	790.00	10416	0.017345	522.77	1.0724	467.94	1.0724	3.1363	10416		
526.16	300.00	0.29980	0.029800	10060	10549	0.028400	0.29960	0.0100000	40.000	791.00	10419	0.017708	524.09	6.0333	469.26	6.0333	3.1140	10419		
527.48	300.00	0.30020	0.029400	10211	9741.1	0.030900	0.30100	0.0100000	40.000	792.00	10457	0.021369	525.41	6.5935	470.59	6.5935	4.1786	10457		
528.80	300.00	0.29910	0.030800	9711.0	10742	0.027900	0.29970	0.0100000	40.000	793.00	10444	0.020115	526.73	6.0087	471.91	6.0087	5.3379	10444		
530.12	300.00	0.30030	0.029400	10214	10472	0.028600	0.29950	0.0100000	40.000	794.00	10447	0.020394	528.05	1.1851	473.23	1.1851	4.8213	10447		
531.44	300.00	0.29970	0.030100	9956.8	9943.7	0.030200	0.30030	0.0100000	40.000	795.00	10464	0.022071	529.37	6.8689	474.55	6.8689	4.3698	10464		
532.76	300.00	0.30020	0.029900	10040	11720	0.025700	0.30120	0.0100000	40.000	796.00	10455	0.021155	530.69	3.4501	475.87	3.4501	4.0385	10455		
534.08	300.00	0.30010	0.028100	10680	10746	0.027900	0.29980	0.0100000	40.000	797.00	10485	0.024165	532.01	4.3360	477.19	4.3360	4.1185	10485		
535.40	300.00	0.30040	0.027200	11044	10594	0.028300	0.29980	0.0100000	40.000	798.00	10459	0.021573	533.34	4.3524	478.51	4.3524	2.0112	10459		
536.72	300.00	0.30080	0.029400	10231	10077	0.029700	0.29930	0.0100000	40.000	799.00	10490	0.024658	534.66	1.5849	479.83	1.5849	-0.031356	10490		
538.05	300.00	0.29990	0.026900	11149	10704	0.028000	0.29970	0.0100000	40.000	800.00	10481	0.023715	535.98	-3.6675	481.15	-3.6675	-2.5047	10481		
539.37	300.00	0.30030	0.027100	11081	10360	0.028900	0.29940	0.0100000	40.000	801.00	10485	0.024115	537.30	-6.7626	482.47	-6.7626	-5.0511	10485		
540.69	300.00	0.30070	0.029300	10263	10486	0.028600	0.29990	0.0100000	40.000	802.00	10437	0.019479	538.62	-8.0307	483.79	-8.0307	-5.0635	10437		
542.01	300.00	0.29950	0.029600	10118	10760	0.027900	0.30020	0.0100000	40.000	803.00	10467	0.022415	539.94	-8.3797	485.11	-8.3797	-5.3839	10467		
543.33	300.00	0.29940	0.027800	10770	10654	0.028300	0.30150	0.0100000	40.000	804.00	10436	0.019385	541.26	1.5233	486.43	1.5233	-6.0700	10436		
544.65	300.00	0.29980	0.027400	10942	10624	0.028200	0.29960	0.0100000	40.000	805.00	10430	0.018756	542.58	-5.2696	487.75	-5.2696	-8.5636	10430		
545.97	300.00	0.29840	0.029400	10150	10847	0.027500	0.29830	0.0100000	40.000	806.00	10466	0.022290	543.90	-10.193	489.07	-10.193	-12.146	10466		
547.29	300.00	0.30030	0.030800	9750.0	10384	0.028900	0.30010	0.0100000	40.000	807.00	10418	0.017564	545.22	-20.499	490.39	-20.499	-16.466	10418		
548.61	300.00	0.30020	0.029100	10316	9816.4	0.030500	0.29940	0.0100000	40.000	808.00	10375	0.013408	546.54	-26.292	491.72	-26.292	-17.176	10375		
549.93	300.00	0.30040	0.030300	9914.2	11089	0.027100	0.30050	0.0100000	40.000	809.00	10340	0.0099777	547.86	-20.076	493.04	-20.076	-15.375	10340		
551.25	300.00	0.30070	0.029300	10263	9888.2	0.030400	0.30060	0.0100000	40.000	810.00	10331	0.0091263	549.18	-8.8224	494.36	-8.8224	-10.922	10331		
552.57	300.00	0.30040	0.030200	9947.0	9986.7	0.030000	0.29960	0.0100000	40.000	811.00	10307	0.0067555	550.50	-1.1883	495.68	-1.1883	-6.0063	10307		
553.89	300.00	0.30060	0.030600	9823.5	9552.4	0.031500	0.30090	0.0100000	40.000	812.00	10334	0.0093285	551.82	1.7676	497.00	1.7676	-3.5010	10334		
555.21	300.00	0.29980	0.028100	10669	10372	0.029000	0.30080	0.0100000	40.000	813.00	10331	0.0091099	553.15	-1.7122	498.32	-1.7122	-3.8249	10331		
556.54	300.00	0.29910	0.029700	10071	10091	0.029800	0.30070	0.0100000	40.000	814.00	10331	0.0090892	554.47	-7.5495	499.64	-7.5495	-5.3803	10331		
557.86	300.00	0.30090	0.028400	10595	10337	0.029100	0.30080	0.0100000	40.000	815.00	10297	0.0057705	555.79	-10.442	500.96	-10.442	-5.8347	10297		
559.18	300.00	0.29970	0.029400	10194	10704	0.028000	0.29970	0.0100000	40.000	816.00	10301	0.0061285	557.11	-8.9652	502.28	-8.9652	-5.1730	10301		
560.50	300.00	0.29990	0.031500	9520.6	10704	0.028000	0.29970	0.0100000	40.000	817.00	10277	0.0038557	558.43	-0.50422	503.60	-0.50422	-3.1398	10277		
561.82	300.00	0.30080	0.027800	10820	9852.0	0.030400	0.29950	0.0100000	40.000	818.00	10282	0.0042647	559.75	1.5961	504.92	1.5961	-0.50843	10282		
563.14	300.00	0.30030	0.029900	10043	9856.2	0.030600	0.30160	0.0100000	40.000	819.00	10303	0.0063771	561.07	2.6168	506.24	2.6168	1.9931	10303		
564.46	300.00	0.30080	0.027800	10820	9894.4	0.030300	0.29980	0.0100000	40.000	820.00	10298	0.0058971	562.39	2.7144	507.56	2.7144	3.4932	10298		
565.78	300.00	0.29960	0.027400	10934	10194	0.029400	0.29970	0.0100000	40.000	821.00	10286	0.0047272	563.71	3.5426	508.88	3.5426	4.9794	10286		
567.10	300.00	0.29850	0.030100	9916.9	10913	0.027600	0.30120	0.0100000	40.000	822.00	10308	0.0068403	565.03	6.9960	510.20	6.9960	5.0783	10308		
568.42	300.00	0.29950	0.030000	9983.3	10439	0.028700	0.29960	0.0100000	40.000	823.00	10322	0.0081903	566.35	9.0272	511.53	9.0273	4.1744	10322		
569.74	300.00	0.29950	0.030300	9884.5	10755	0.027800	0.29900	0.0100000	40.000	824.00	10327	0.0086777	567.67	3.1109	512.85	3.1109	2.9177	10327		
571.06	300.00	0.29970	0.027600	10859	9940.2	0.030100	0.29920	0.0100000	40.000	825.00	10337	0.0096308	568.99	-1.8047	514.17	-1.8047	1.4214	10337		
572.38	300.00	0.29940	0.030000	9980.0	10701	0.028100	0.30070	0.0100000	40.000	826.00	10321	0.0081264	570.31	-2.7412	515.49	-2.7412	1.3505	10321		
573.70	300.00	0.30020	0.027400	10956	10359	0.029000	0.30040	0.0100000	40.000	827.00	10313	0.0073020	571.63	-0.48523	516.81	-0.48523	3.3927	10313		
575.02	300.00	0.30070	0.029400	10228	10472	0.028600	0.29950	0.0100000	40.000	828.00	10321	0.0080741	572.95	8.6726	518.13	8.6726	7.5235	10321		
576.34	300.00	0.29880	0.030700	9732.9	10271	0.029200	0.29990	0.0100000	40.000	829.00	10334	0.0093440	574.28	13.322	519.45	13.322	9.5529	10334		
577.66	300.00	0.29960	0.028500	10512	10985	0.027300	0.29990	0.0100000	40.000	830.00	10368	0.012699	575.60	18.849	520.77	18.849	9.4393	10368		
578.98	300.00	0.29970	0.027500	10898	9636.7	0.031100	0.29970	0.0100000	40.000	831.00	10377	0.013581	576.92	7.4057	522.09	7.4057	5.9955	10377		
580.31	300.00	0.29960	0.027700	10816	10441	0.028800	0.30070	0.0100000	40.000	832.00	10423	0.018112	578.24	-1.0534	523.41	-1.0534	1.6253	10423		
581.63	300.00	0.29940	0.028900	10360	9842.6	0.030500	0.30020	0.0100000	40.000	833.00	10355	0.011414	579.56	-8.5462	524.73	-8.5462	-1.2549	10355		
582.95	300.00	0.30090	0.029800	10097	10477	0.028500	0.29860	0.0100000	40.000	834.00	10372	0.013103	580.88	-8.5292	526.05	-8.5292	-1.5843	10372		
584.27	300.00	0.30070	0.031100	9668.8	10296	0.029100	0.29960	0.0100000	40.000	835.00	10346	0.010574	582.20	4.4487	527.37	4.4487	-0.70789	10346		
585.59	300.00	0.29860	0.028600	10441	10013	0.030000	0.30040	0.0100000	40.000	836.00	10371	0.013031	583.52	5.7584	528.69	5.7584	1.0658	10371		
586.91	300.00	0.29940	0.030200	9913.9	10526	0.028500	0.30000	0.0100000	40.000	837.00	10385	0.014319	584.84	3.3288	530.01	3.3288	0.99757	10385		
588.23	300.00	0.30000	0.027500	10909	10870	0.027600	0.30000	0.0100000	40.000	838.00	10391	0.014944	586.16	0.32218	531.33	0.32218	-0.94284	10391		
589.55	300.00	0.30010	0.029600	10139	10125	0.029600	0.29970	0.0100000	40.000	839.00	10358	0.011764	587.48	-8.8703	532.65	-8.8703	-3.0421	10358		
590.87	300.00	0.30000	0.028800	10417	10577	0.028400	0.30040	0.0100000	40.000	840.00	10387	0.014517	588.80	-5.2533	533.98	-5.2533	-4.8948	10387		
592.19	300.00	0.30070	0.030400	9891.4	10084	0.029700	0.29950	0.0100000	40.000	841.00	10328	0.0088123	590.12	-4.7380	535.30	-4.7380	-5.8051	10328		
593.51	300.00	0.30070	0.028500	10551	11168	0.026800	0.29930	0.0100000	40.000	842.00	10371	0.013032	591.44	-5.9348	536.62	-5.9348	-6.6477	10371		
594.83	300.00	0.30080	0.027800	10820	9473.0	0.031500	0.29840	0.0100000	40.000	843.00	10335	0.0094505	592.76	-4.2290	537.94	-4.2290	-6.4795	10335		
596.15	300.00	0.30060	0.030000	10020	10802	0.027800	0.30030	0.0100000	40.000	844.00	10344	0.010370	594.08	-13.083	539.26	-13.083	-4.0850	10344		
597.47	300.00	0.29990	0.026700	11232	10212	0.029300	0.29920	0.0100000	40.000	845.00	10314	0.0074159	595.40	-4.4126	540.58	-4.4126	-0.39286	10314		
598.79	300.00	0.29930	0.031300	9562.3	10469	0.028600	0.29940	0.0100000	40.000	846.00	10295	0.0056115	596.73	7.2345	541.90	7.2345	3.7641	10295		
600.11	300.00	0.29890	0.029700	10064	10978	0.027300	0.29970	0.0100000	40.000	847.00	10330	0.0089837	598.05	12.526	543.22	12.526	8.5220	10330		
601.44	300.00	0.30110	0.029300	10276	10493	0.028600	0.30010	0.0100000	40.000	848.00	10384	0.014252	599.37	16.556	544.54	16.556	11.435	10384		
602.76	300.00	0.30030	0.026700	11247	9788.3	0.030700	0.30050	0.0100000	40.000	849.00	10352	0.011175	600.69	10.706	545.86	10.706	12.203	10352		
604.08	300.00	0.29930	0.029800	10044	10862	0.027600	0.29980	0.0100000	40.000	850.00	10394	0.015194	602.01	10.150	547.18	10.150	11.389	10394		
605.40	300.00	0.29910	0.028700	10422	9759.0	0.030700	0.29960	0.0100000	40.000	851.00	10396	0.015417	603.33	11.078	548.50	11.078	9.7343	10396		
606.72	300.00	0.29960	0.027200	11015	10544	0.028500	0.30050	0.0100000	40.000	852.00	10429	0.018677	604.65	8.4535	549.82	8.4535	8.3704	10429		
608.04	300.00	0.30120	0.031100	9684.9	9671.0	0.031000	0.29980	0.0100000	40.000	853.00	10408	0.016579	605.97	8.2833	551.14	8.2833	7.8654	10408		
609.36	300.00	0.29940	0.029900	10013	10040	0.029800	0.29920	0.0100000	40.000	854.00	10443	0.020065	607.29	3.8863	552.46	3.8863	5.2804	10443		
610.68	300.00	0.30040	0.029500	10183	9842.1	0.030400	0.29920	0.0100000	40.000	855.00	10443	0.020065	608.61	7.6255	553.79	7.6255	2.2749	10443		
612.00	300.00	0.30070	0.028100	10701	9907.6	0.030300	0.30020	0.0100000	40.000	856.00	10437	0.019440	609.93	-1.8467	555.11	-1.8467	1.5259	10437		
613.32	300.00	0.29960	0.028100	10662	10738	0.027900	0.29960	0.0100000	40.000	857.00	10461	0.021810	611.25	-6.5738	556.43	-6.5738	1.7388	10461		
614.64	300.00	0.30020	0.029100	10316	11659	0.025800	0.30080	0.0100000	40.000	858.00	10422	0.018002	612.57	4.5381	557.75	4.5381	2.5083	10422		
615.96	300.00	0.30000	0.028900	10381	10208	0.029300	0.29910	0.0100000	40.000	859.00	10407	0.016544	613.89	4.9510	559.07	4.9510	4.4522	10407		
617.28	300.00	0.30060	0.028900	10401	10989	0.027400	0.30110	0.0100000	40.000	860.00	10494	0.025000	615.21	11.473	560.39	11.473	5.0388	10494		
618.60	300.00	0.30000	0.031200	9615.4	10625	0.028300	0.30070	0.0100000	40.000	861.00	10458	0.021504	616.54	7.8725	561.71	7.8725	4.9154	10458		
619.92	300.00	0.29960	0.030100	9953.5	10785	0.027900	0.30090	0.0100000	40.000	862.00	10473	0.022922	617.86	-3.6407	563.03	-3.6407	4.5505	10473		
621.25	300.00	0.30000	0.029500	10169	10717	0.027900	0.29900	0.0100000	40.000	863.00	10470	0.022661	619.18	3.9209	564.35	3.9209	4.0919	10470		
622.57	300.00	0.30050	0.029600	10152	10223	0.029200	0.29850	0.0100000	40.000	864.00	10464	0.022073	620.50	3.1265	565.67	3.1265	4.5716	10464		
623.89	300.00	0.30010	0.031500	9527.0	10802	0.027800	0.30030	0.0100000	40.000	865.00	10488	0.024457	621.82	9.1801	566.99	9.1801	5.1495	10488		
625.21	300.00	0.30010	0.029000	10348	10077	0.029800	0.30030	0.0100000	40.000	866.00	10484	0.024040	623.14	10.271	568.31	10.271	2.7163	10484		
626.53	300.00	0.30130	0.031100	9688.1	10978	0.027300	0.29970	0.0100000	40.000	867.00	10521	0.027598	624.46	-0.75096	569.63	-0.75096	-2.1068	10521		
627.85	300.00	0.29950	0.030100	9950.2	10159	0.029500	0.29970	0.0100000	40.000	868.00	10516	0.027127	625.78	-8.2452	570.95	-8.2452	-7.3768	10516		
629.17	300.00	0.29940	0.027600	10848	10180	0.029500	0.30030	0.0100000	40.000	869.00	10468	0.022429	627.10	-20.989	572.27	-20.989	-10.124	10468		
630.49	300.00	0.30060	0.028500	10547	11606	0.025900	0.30060	0.0100000	40.000	870.00	10456	0.021307	628.42	-17.170	573.59	-17.170	-10.203	10456		
631.81	300.00	0.30040	0.029500	10183	10111	0.029800	0.30130	0.0100000	40.000	871.00	10412	0.016972	629.74	-3.4657	574.92	-3.4657	-8.7540	10412		
633.13	300.00	0.29970	0.028900	10370	10064	0.029800	0.29990	0.0100000	40.000	872.00	10430	0.018782	631.06	-1.1473	576.24	-1.1473	-6.8832	10430		
634.45	300.00	0.30060	0.026700	11258	10488	0.028700	0.30100	0.0100000	40.000	873.00	10458	0.021456	632.38	-0.99812	577.56	-0.99812	-6.4845	10458		
635.77	300.00	0.29910	0.027600	10837	9544.6	0.031400	0.29970	0.0100000	40.000	874.00	10426	0.018324	633.70	-11.635	578.88	-11.635	-7.5077	10426		
637.09	300.00	0.29970	0.030300	9891.1	10553	0.028400	0.29970	0.0100000	40.000	875.00	10408	0.016557	635.02	-15.177	580.20	-15.177	-8.3523	10408		
638.41	300.00	0.30020	0.028700	10460	9752.4	0.030700	0.29940	0.0100000	40.000	876.00	10379	0.013728	636.34	-8.5813	581.52	-8.5813	-7.4848	10379		
639.73	300.00	0.30050	0.026500	11340	10673	0.028100	0.29990	0.0100000	40.000	877.00	10381	0.013966	637.67	-5.3707	582.84	-5.3707	-6.5330	10381		
641.05	300.00	0.30100	0.030400	9901.3	10637	0.028100	0.29890	0.0100000	40.000	878.00	10382	0.014085	638.99	3.3395	584.16	3.3395	-7.1596	10382		
642.38	300.00	0.30040	0.025800	11643	10649	0.028200	0.30030	0.0100000	40.000	879.00	10370	0.012914	640.31	-6.8753	585.48	-6.8753	-8.4466	10370		
643.70	300.00	0.29940	0.028700	10432	9966.8	0.030100	0.30000	0.0100000	40.000	880.00	10406	0.016407	641.63	-18.310	586.80	-18.310	-9.3331	10406		
645.02	300.00	0.29850	0.026700	11180	10057	0.029800	0.29970	0.0100000	40.000	881.00	10324	0.0083705	642.95	-15.016	588.12	-15.016	-7.9669	10324		
646.34	300.00	0.30110	0.028100	10715	11015	0.027200	0.29960	0.0100000	40.000	882.00	10285	0.0045476	644.27	-9.8030	589.44	-9.8030	-4.9005	10285		
647.66	300.00	0.29950	0.030500	9819.7	11360	0.026400	0.29990	0.0100000	40.000	883.00	10332	0.0091588	645.59	10.170	590.76	10.170	-1.4864	10332		
648.98	300.00	0.29950	0.027700	10812	10043	0.029900	0.30030	0.0100000	40.000	884.00	10337	0.0096905	646.91	8.4569	592.08	8.4569	-0.13344	10337		
650.30	300.00	0.29970	0.028700	10443	9842.6	0.030500	0.30020	0.0100000	40.000	885.00	10365	0.012359	648.23	-1.2401	593.40	-1.2401	-0.73599	10365		
651.62	300.00	0.30070	0.029000	10369	10194	0.029400	0.29970	0.0100000	40.000	886.00	10324	0.0084026	649.55	-8.2514	594.73	-8.2514	-4.8767	10324		
652.94	300.00	0.30020	0.029000	10352	10128	0.029600	0.29980	0.0100000	40.000	887.00	10330	0.0090032	650.87	-12.816	596.05	-12.816	-8.0921	10330		
654.26	300.00	0.30020	0.029200	10281	11004	0.027300	0.30040	0.0100000	40.000	888.00	10300	0.0060464	652.19	-10.533	597.37	-10.533	-7.3800	10300		
655.58	300.00	0.30000	0.029500	10169	9907.6	0.030300	0.30020	0.0100000	40.000	889.00	10292	0.0052714	653.51	-7.6201	598.69	-7.6201	-4.7460	10292		
656.90	300.00	0.29940	0.028500	10505	10931	0.027400	0.29950	0.0100000	40.000	890.00	10274	0.0034754	654.83	2.3203	600.01	2.3203	-3.5640	10274		
658.22	300.00	0.30020	0.029600	10142	9878.3	0.030400	0.30030	0.0100000	40.000	891.00	10293	0.0053741	656.15	4.9186	601.33	4.9186	-4.7150	10293		
659.54	300.00	0.29900	0.029600	10101	9288.8	0.032200	0.29910	0.0100000	40.000	892.00	10315	0.0074915	657.47	-6.9054	602.65	-6.9054	-6.7310	10315		
660.86	300.00	0.29990	0.029800	10064	11055	0.027200	0.30070	0.0100000	40.000	893.00	10304	0.0064360	658.80	-16.289	603.97	-16.289	-10.089	10304		
662.19	300.00	0.29990	0.028700	10449	10602	0.028400	0.30110	0.0100000	40.000	894.00	10223	-0.0015094	660.12	-17.700	605.29	-17.700	-12.266	10223		
663.51	300.00	0.30020	0.031100	9652.7	10118	0.029600	0.29950	0.0100000	40.000	895.00	10232	-0.00063222	661.44	-14.470	606.61	-14.470	-13.848	10232		
664.83	300.00	0.29930	0.031100	9623.8	9702.3	0.030900	0.29980	0.0100000	40.000	896.00	10234	-0.00039137	662.76	-5.9646	607.93	-5.9646	-13.615	10234		
666.15	300.00	0.29990	0.029600	10132	9881.6	0.030400	0.30040	0.0100000	40.000	897.00	10203	-0.0034558	664.08	-14.816	609.25	-14.816	-13.369	10203		
667.47	300.00	0.29970	0.028700	10443	10037	0.029800	0.29910	0.0100000	40.000	898.00	10198	-0.0039445	665.40	-15.126	610.57	-15.126	-13.582	10198		
668.79	300.00	0.30060	0.030100	9986.7	10470	0.028700	0.30050	0.0100000	40.000	899.00	10152	-0.0084111	666.72	-16.467	611.89	-16.467	-12.822	10152		
670.11	300.00	0.30020	0.029600	10142	10263	0.029300	0.30070	0.0100000	40.000	900.00	10159	-0.0076692	668.04	-15.536	613.21	-15.536	-10.473	10159		
671.43	300.00	0.29860	0.030000	9953.3	10375	0.028800	0.29880	0.0100000	40.000	901.00	10113	-0.012214	669.36	-2.1641	614.54	-2.1641	-7.9822	10113		
672.75	300.00	0.30020	0.030400	9875.0	10512	0.028500	0.29960	0.0100000	40.000	902.00	10114	-0.012064	670.68	-3.0698	615.86	-3.0698	-5.6588	10114		
674.07	300.00	0.30000	0.029000	10345	10788	0.027800	0.29990	0.0100000	40.000	903.00	10160	-0.0076092	672.00	-2.6741	617.18	-2.6741	-4.0334	10160		
675.39	300.00	0.29980	0.032200	9310.6	9651.6	0.031000	0.29920	0.0100000	40.000	904.00	10116	-0.011951	673.32	-4.8498	618.50	-4.8498	-2.1272	10116		
676.71	300.00	0.29880	0.028000	10671	10232	0.029300	0.29980	0.0100000	40.000	905.00	10095	-0.013995	674.64	-7.4093	619.82	-7.4093	0.81010	10095		
678.03	300.00	0.29990	0.028300	10597	9894.4	0.030300	0.29980	0.0100000	40.000	906.00	10115	-0.011999	675.96	7.3671	621.14	7.3671	3.5308	10115		
679.35	300.00	0.29970	0.029300	10229	9535.0	0.031400	0.29940	0.0100000	40.000	907.00	10111	-0.012364	677.29	11.617	622.46	11.617	6.1025	10111		
680.67	300.00	0.30140	0.030500	9882.0	10023	0.030000	0.30070	0.0100000	40.000	908.00	10156	-0.0080153	678.61	10.929	623.78	10.929	7.8530	10156		
681.99	300.00	0.30040	0.028500	10540	10043	0.030000	0.30130	0.0100000	40.000	909.00	10151	-0.0084950	679.93	8.0089	625.10	8.0089	5.0645	10151		
683.32	300.00	0.30030	0.032100	9355.1	10067	0.029800	0.30000	0.0100000	40.000	910.00	10168	-0.0068849	681.25	1.3432	626.42	1.3432	-0.46957	10168		
684.64	300.00	0.30070	0.030600	9826.8	9953.5	0.030100	0.29960	0.0100000	40.000	911.00	10159	-0.0077638	682.57	-6.5754	627.74	-6.5754	-5.1008	10159		
685.96	300.00	0.30080	0.028700	10481	9910.6	0.030200	0.29930	0.0100000	40.000	912.00	10161	-0.0075146	683.89	-16.054	629.06	-16.054	-7.8202	10161		
687.28	300.00	0.30130	0.028100	10722	10247	0.029200	0.29920	0.0100000	40.000	913.00	10111	-0.012421	685.21	-12.227	630.38	-12.227	-7.2490	10111		
688.60	300.00	0.29860	0.030800	9694.8	10122	0.029600	0.29960	0.0100000	40.000	914.00	10085	-0.014910	686.53	-5.5879	631.70	-5.5879	-3.4509	10085		
689.92	300.00	0.30030	0.030300	9910.9	10163	0.029500	0.29980	0.0100000	40.000	915.00	10116	-0.011952	687.85	4.1991	633.02	4.1991	1.9085	10116		
691.24	300.00	0.29910	0.028200	10606	10547	0.028500	0.30060	0.0100000	40.000	916.00	10122	-0.011353	689.17	12.415	634.34	12.415	6.9170	10122		
692.56	300.00	0.30050	0.030700	9788.3	9623.8	0.031100	0.29930	0.0100000	40.000	917.00	10120	-0.011491	690.49	10.743	635.67	10.743	9.3589	10120		
693.88	300.00	0.30000	0.030600	9803.9	10817	0.027800	0.30070	0.0100000	40.000	918.00	10165	-0.0071332	691.81	12.815	636.99	12.815	9.4902	10165		
695.20	300.00	0.29940	0.030800	9720.8	9933.8	0.030200	0.30000	0.0100000	40.000	919.00	10165	-0.0071328	693.13	6.6218	638.31	6.6218	7.0596	10165		
696.52	300.00	0.30030	0.030100	9976.7	10817	0.027800	0.30070	0.0100000	40.000	920.00	10184	-0.0052671	694.45	4.8554	639.63	4.8554	3.1531	10184		
697.84	300.00	0.30000	0.030300	9901.0	10074	0.029800	0.30020	0.0100000	40.000	921.00	10155	-0.0081535	695.77	0.26231	640.95	0.26231	-2.9125	10155		
699.16	300.00	0.30020	0.031200	9621.8	10429	0.028700	0.29930	0.0100000	40.000	922.00	10202	-0.0034912	697.09	-8.7893	642.27	-8.7893	-9.4370	10202		
700.48	300.00	0.29930	0.029800	10044	9457.4	0.031700	0.29980	0.0100000	40.000	923.00	10158	-0.0078515	698.42	-17.513	643.59	-17.513	-14.197	10158		
701.80	300.00	0.29960	0.028600	10476	10253	0.029300	0.30040	0.0100000	40.000	924.00	10124	-0.011087	699.74	-26.001	644.91	-26.001	-16.907	10124		
703.13	300.00	0.29900	0.030600	9771.2	10288	0.029200	0.30040	0.0100000	40.000	925.00	10078	-0.015652	701.06	-18.943	646.23	-18.943	-18.046	10078		
704.45	300.00	0.30030	0.029300	10249	10361	0.029100	0.30150	0.0100000	40.000	926.00	10070	-0.016362	702.38	-13.291	647.55	-13.291	-17.842	10070		
705.77	300.00	0.30030	0.030000	10010	9864.7	0.030300	0.29890	0.0100000	40.000	927.00	10060	-0.017432	703.70	-14.484	648.87	-14.484	-17.143	10060		
707.09	300.00	0.30100	0.030400	9901.3	10472	0.028600	0.29950	0.0100000	40.000	928.00	10046	-0.018769	705.02	-16.492	650.19	-16.492	-17.318	10046		
708.41	300.00	0.30080	0.031400	9579.6	10023	0.029900	0.29970	0.0100000	40.000	929.00	9994.4	-0.023790	706.34	-22.505	651.51	-22.505	-16.889	9994.4		
709.73	300.00	0.29970	0.027800	10781	10444	0.028800	0.30080	0.0100000	40.000	930.00	9994.1	-0.023820	707.66	-19.816	652.83	-19.816	-15.387	9994.1		
711.05	300.00	0.30100	0.030000	10033	9446.5	0.031800	0.30040	0.0100000	40.000	931.00	9936.8	-0.029421	708.98	-11.146	654.15	-11.146	-12.811	9936.8		
712.37	300.00	0.30070	0.030400	9891.4	10956	0.027200	0.29800	0.0100000	40.000	932.00	9943.8	-0.028733	710.30	-6.9764	655.47	-6.9764	-9.6852	9943.8		
713.69	300.00	0.30020	0.029700	10108	8973.1	0.033500	0.30060	0.0100000	40.000	933.00	9946.0	-0.028522	711.62	-3.6110	656.80	-3.6110	-6.6808	9946.0		
715.01	300.00	0.30030	0.030500	9845.9	9551.0	0.031400	0.29990	0.0100000	40.000	934.00	9943.5	-0.028769	712.94	-6.8764	658.12	-6.8764	-4.3295	9943.5		
716.33	300.00	0.29910	0.030800	9711.0	9140.2	0.032800	0.29980	0.0100000	40.000	935.00	9913.1	-0.031733	714.26	-4.7937	659.44	-4.7937	-2.5900	9913.1		
717.65	300.00	0.30020	0.030300	9907.6	10010	0.030000	0.30030	0.0100000	40.000	936.00	9914.9	-0.031563	715.58	0.60986	660.76	0.60986	-2.4696	9914.9		
718.97	300.00	0.30070	0.029900	10057	10317	0.029000	0.29920	0.0100000	40.000	937.00	9928.6	-0.030217	716.90	1.7211	662.08	1.7211	-2.3542	9928.6		
720.29	300.00	0.29950	0.030000	9983.3	9336.4	0.032100	0.29970	0.0100000	40.000	938.00	9939.7	-0.029133	718.22	-3.0087	663.40	-3.0087	-1.1849	9939.7		
721.61	300.00	0.29900	0.029500	10136	9737.0	0.030800	0.29990	0.0100000	40.000	939.00	9912.0	-0.031837	719.55	-6.2996	664.72	-6.2996	-1.2890	9912.0		
722.93	300.00	0.29990	0.030400	9865.1	9927.4	0.030300	0.30080	0.0100000	40.000	940.00	9903.3	-0.032693	720.87	1.0529	666.04	1.0529	-1.8706	9903.3		
724.26	300.00	0.30080	0.032400	9284.0	9612.2	0.031200	0.29990	0.0100000	40.000	941.00	9905.3	-0.032500	722.19	0.089418	667.36	0.089418	-2.0433	9905.3		
725.58	300.00	0.29910	0.030900	9679.6	10222	0.029300	0.29950	0.0100000	40.000	942.00	9950.1	-0.028123	723.51	-1.1868	668.68	-1.1868	-0.48594	9950.1		
726.90	300.00	0.30050	0.028700	10470	10474	0.028700	0.30060	0.0100000	40.000	943.00	9889.2	-0.034065	724.83	-3.8724	670.00	-3.8724	1.1256	9889.2		
728.22	300.00	0.29980	0.029700	10094	9404.4	0.031900	0.30000	0.0100000	40.000	944.00	9903.5	-0.032677	726.15	1.4872	671.32	1.4872	1.3180	9903.5		
729.54	300.00	0.30050	0.031100	9662.4	9615.4	0.031200	0.30000	0.0100000	40.000	945.00	9903.0	-0.032721	727.47	9.1105	672.64	9.1105	1.4714	9903.0		
730.86	300.00	0.30020	0.029600	10142	10324	0.029000	0.29940	0.0100000	40.000	946.00	9953.0	-0.027836	728.79	1.0513	673.96	1.0513	2.0217	9953.0		
732.18	300.00	0.30010	0.030500	9839.3	10650	0.028300	0.30140	0.0100000	40.000	947.00	9924.6	-0.030609	730.11	-0.41974	675.28	-0.41974	3.3847	9924.6		
733.50	300.00	0.30070	0.030800	9763.0	10098	0.029700	0.29990	0.0100000	40.000	948.00	9899.6	-0.033054	731.43	-1.1207	676.60	-1.1207	5.5961	9899.6		
734.82	300.00	0.29990	0.028300	10597	9890.7	0.030200	0.29870	0.0100000	40.000	949.00	9926.9	-0.030383	732.75	8.3019	677.93	8.3019	8.9396	9926.9		
736.14	300.00	0.30000	0.030900	9708.7	9839.3	0.030500	0.30010	0.0100000	40.000	950.00	9944.5	-0.028672	734.07	20.168	679.25	20.168	11.757	9944.5		
737.46	300.00	0.29970	0.030900	9699.0	10486	0.028600	0.29990	0.0100000	40.000	951.00	9957.0	-0.027446	735.39	17.769	680.57	17.769	13.176	9957.0		
738.78	300.00	0.29940	0.029500	10149	10388	0.028900	0.30020	0.0100000	40.000	952.00	10018	-0.021515	736.71	13.667	681.89	13.667	10.566	10018		
740.10	300.00	0.30010	0.030200	9937.1	9678.5	0.031100	0.30100	0.0100000	40.000	953.00	10008	-0.022500	738.03	5.9755	683.21	5.9755	4.7880	10008		
741.42	300.00	0.30010	0.029800	10070	9271.6	0.032400	0.30040	0.0100000	40.000	954.00	10009	-0.022330	739.36	-4.7512	684.53	-4.7512	-2.8721	10009		
742.74	300.00	0.30040	0.029500	10183	9541.4	0.031400	0.29960	0.0100000	40.000	955.00	10001	-0.023183	740.68	-8.7200	685.85	-8.7200	-9.5619	10001		
744.07	300.00	0.30100	0.030300	9934.0	10190	0.029400	0.29960	0.0100000	40.000	956.00	9989.9	-0.024238	742.00	-20.532	687.17	-20.532	-14.285	9989.9		
745.39	300.00	0.30080	0.031100	9672.0	9413.8	0.031900	0.30030	0.0100000	40.000	957.00	9959.8	-0.027171	743.32	-19.782	688.49	-19.782	-15.552	9959.8		
746.71	300.00	0.29990	0.028400	10560	9791.5	0.030700	0.30060	0.0100000	40.000	958.00	9894.2	-0.033579	744.64	-17.638	689.81	-17.638	-15.250	9894.2		
748.03	300.00	0.29950	0.029600	10118	9910.9	0.030300	0.30030	0.0100000	40.000	959.00	9917.8	-0.031272	745.96	-11.090	691.13	-11.090	-13.633	9917.8		
749.35	300.00	0.29920	0.030800	9714.3	10105	0.029600	0.29910	0.0100000	40.000	960.00	9894.4	-0.033563	747.28	-7.2108	692.45	-7.2108	-10.341	9894.4		
750.67	300.00	0.29910	0.028000	10682	10191	0.029300	0.29860	0.0100000	40.000	961.00	9886.5	-0.034331	748.60	-12.445	693.77	-12.445	-4.4496	9886.5		
751.99	300.00	0.30010	0.030200	9937.1	10887	0.027500	0.29940	0.0100000	40.000	962.00	9862.3	-0.036700	749.92	-3.3220	695.09	-3.3220	2.9299	9862.3		
753.31	300.00	0.30040	0.029200	10288	10010	0.030000	0.30030	0.0100000	40.000	963.00	9851.7	-0.037730	751.24	11.820	696.42	11.820	9.4671	9851.7		
754.63	300.00	0.30000	0.032700	9174.3	10510	0.028600	0.30060	0.0100000	40.000	964.00	9889.8	-0.034006	752.56	25.808	697.74	25.808	17.691	9889.8		
755.95	300.00	0.30070	0.032900	9139.8	9220.9	0.032600	0.30060	0.0100000	40.000	965.00	9950.8	-0.028054	753.88	25.475	699.06	25.475	23.229	9950.8		
757.27	300.00	0.30050	0.029200	10291	9388.7	0.031900	0.29950	0.0100000	40.000	966.00	9983.1	-0.024893	755.20	28.675	700.38	28.675	25.111	9983.1		
758.59	300.00	0.29910	0.031300	9555.9	9693.5	0.031000	0.30050	0.0100000	40.000	967.00	9973.3	-0.025856	756.52	24.370	701.70	24.370	23.698	9973.3		
759.91	300.00	0.30020	0.030600	9810.5	9272.4	0.032300	0.29950	0.0100000	40.000	968.00	10068	-0.016611	757.84	21.226	703.02	21.226	18.807	10068		
761.23	300.00	0.30030	0.031800	9443.4	10594	0.028300	0.29980	0.0100000	40.000	969.00	10069	-0.016477	759.17	18.744	704.34	18.744	11.919	10069		
762.55	300.00	0.30000	0.027500	10909	9398.1	0.031900	0.29980	0.0100000	40.000	970.00	10075	-0.015892	760.49	1.0229	705.66	1.0229	5.1332	10075		
763.88	300.00	0.30010	0.027600	10873	9674.2	0.031000	0.29990	0.0100000	40.000	971.00	10093	-0.014126	761.81	-5.7673	706.98	-5.7673	-1.8422	10093		
765.20	300.00	0.30110	0.029600	10172	9976.7	0.030100	0.30030	0.0100000	40.000	972.00	10063	-0.017127	763.13	-9.5594	708.30	-9.5594	-6.6486	10063		
766.52	300.00	0.29920	0.029100	10282	10166	0.029500	0.29990	0.0100000	40.000	973.00	10038	-0.019580	764.45	-13.651	709.62	-13.651	-4.9863	10038		
767.84	300.00	0.29990	0.029700	10098	10479	0.028600	0.29970	0.0100000	40.000	974.00	10040	-0.019331	765.77	-5.2881	710.94	-5.2881	-0.18864	10040		
769.16	300.00	0.30010	0.029400	10207	10551	0.028300	0.29860	0.0100000	40.000	975.00	10015	-0.021829	767.09	9.3341	712.26	9.3341	8.5996	10015		
770.48	300.00	0.30050	0.030300	9917.5	10221	0.029400	0.30050	0.0100000	40.000	976.00	10039	-0.019413	768.41	18.221	713.58	18.221	17.805	10039		
771.80	300.00	0.30020	0.029200	10281	9983.4	0.030100	0.30050	0.0100000	40.000	977.00	10100	-0.013518	769.73	34.382	714.90	34.382	24.191	10100		
773.12	300.00	0.29970	0.030000	9990.0	11402	0.026400	0.30100	0.0100000	40.000	978.00	10118	-0.011734	771.05	32.378	716.22	32.378	26.930	10118		
774.44	300.00	0.29920	0.031200	9589.7	9820.3	0.030600	0.30050	0.0100000	40.000	979.00	10202	-0.0034936	772.37	26.641	717.55	26.641	26.495	10202		
775.76	300.00	0.29960	0.028900	10367	10037	0.029900	0.30010	0.0100000	40.000	980.00	10202	-0.0035429	773.69	23.028	718.87	23.028	22.966	10202		
777.08	300.00	0.30100	0.029100	10344	10484	0.028700	0.30090	0.0100000	40.000	981.00	10234	-0.00043134	775.01	16.045	720.19	16.045	19.176	10234		
778.40	300.00	0.29880	0.027500	10865	9546.0	0.031500	0.30070	0.0100000	40.000	982.00	10254	0.0015869	776.33	16.739	721.51	16.739	15.625	10254		
779.72	300.00	0.30030	0.029800	10077	10360	0.028900	0.29940	0.0100000	40.000	983.00	10282	0.0042900	777.65	13.427	722.83	13.427	12.228	10282		
781.04	300.00	0.29940	0.029700	10081	10064	0.029900	0.30090	0.0100000	40.000	984.00	10288	0.0048920	778.97	8.8857	724.15	8.8857	10.745	10288		
782.36	300.00	0.29890	0.030300	9864.7	9973.4	0.030100	0.30020	0.0100000	40.000	985.00	10305	0.0065764	780.30	6.0426	725.47	6.0426	8.6255	10305		
783.69	300.00	0.29930	0.027200	11004	9740.3	0.030800	0.30000	0.0100000	40.000	986.00	10301	0.0061754	781.62	8.6291	726.79	8.6291	7.1716	10301		
785.01	300.00	0.29940	0.030300	9881.2	10656	0.028200	0.30050	0.0100000	40.000	987.00	10315	0.0075461	782.94	6.1432	728.11	6.1432	6.3303	10315		
786.33	300.00	0.30040	0.029400	10218	10077	0.029800	0.30030	0.0100000	40.000	988.00	10340	0.0099734	784.26	6.1573	729.43	6.1573	5.9514	10340		
787.65	300.00	0.29970	0.032700	9165.1	11044	0.027200	0.30040	0.0100000	40.000	989.00	10326	0.0086399	785.58	4.6792	730.75	4.6792	5.9108	10326		
788.97	300.00	0.29920	0.030200	9907.3	10583	0.028300	0.29950	0.0100000	40.000	990.00	10336	0.0095999	786.90	4.1482	732.07	4.1482	5.7819	10336		
790.29	300.00	0.29960	0.030000	9986.7	10067	0.029800	0.30000	0.0100000	40.000	991.00	10348	0.010751	788.22	8.4259	733.39	8.4259	4.1347	10348		
791.61	300.00	0.30110	0.029700	10138	10108	0.029600	0.29920	0.0100000	40.000	992.00	10357	0.011594	789.54	5.4991	734.71	5.4991	1.6832	10357		
792.93	300.00	0.30030	0.031800	9443.4	10558	0.028500	0.30090	0.0100000	40.000	993.00	10372	0.013078	790.86	-2.0790	736.04	-2.0790	1.0330	10372		
794.25	300.00	0.29940	0.029600	10115	10296	0.029100	0.29960	0.0100000	40.000	994.00	10361	0.011983	792.18	-7.5782	737.36	-7.5782	0.15082	10361		
795.57	300.00	0.30010	0.026400	11367	10841	0.027700	0.30030	0.0100000	40.000	995.00	10332	0.0092150	793.50	0.89723	738.68	0.89723	0.53544	10332		
796.89	300.00	0.30010	0.029800	10070	10465	0.028600	0.29930	0.0100000	40.000	996.00	10326	0.0086371	794.82	4.0151	740.00	4.0151	1.1287	10326		
798.21	300.00	0.29950	0.029000	10328	10516	0.028500	0.29970	0.0100000	40.000	997.00	10395	0.015329	796.14	7.4222	741.32	7.4222	0.80847	10395		
799.53	300.00	0.30150	0.028400	10616	10505	0.028500	0.29940	0.0100000	40.000	998.00	10356	0.011516	797.46	0.88734	742.64	0.88734	0.78417	10356		
800.85	300.00	0.29850	0.027300	10934	11115	0.027000	0.30010	0.0100000	40.000	999.00	10367	0.012563	798.79	-9.1795	743.96	-9.1795	1.3812	10367		
802.18	300.00	0.30010	0.028100	10680	10027	0.030000	0.30080	0.0100000	40.000	1000.0	10346	0.010593	800.11	0.77575	745.28	0.77575	2.7596	10346		
803.50	300.00	0.29950	0.031800	9418.2	10284	0.029200	0.30030	0.0100000	40.000	1001.0	10339	0.0098678	801.43	7.0002	746.60	7.0002	5.5468	10339		
804.82	300.00	0.30010	0.028300	10604	10665	0.028100	0.29970	0.0100000	40.000	1002.0	10375	0.013364	802.75	14.314	747.92	14.314	8.2814	10375		
806.14	300.00	0.29980	0.029800	10060	9865.1	0.030400	0.29990	0.0100000	40.000	1003.0	10399	0.015695	804.07	14.823	749.24	14.823	7.6190	10399		
807.46	300.00	0.29920	0.028100	10648	10125	0.029700	0.30070	0.0100000	40.000	1004.0	10411	0.016915	805.39	4.4936	750.57	4.4936	4.0826	10411		
808.78	300.00	0.30050	0.028300	10618	9468.4	0.031600	0.29920	0.0100000	40.000	1005.0	10419	0.017656	806.71	-2.5367	751.89	-2.5367	-1.0940	10419		
810.10	300.00	0.30020	0.030300	9907.6	9849.2	0.030500	0.30040	0.0100000	40.000	1006.0	10394	0.015283	808.03	-10.681	753.21	-10.681	-7.4136	10394		
811.42	300.00	0.30030	0.029100	10320	11179	0.026800	0.29960	0.0100000	40.000	1007.0	10390	0.014874	809.35	-11.569	754.53	-11.569	-11.911	10390		
812.74	300.00	0.29910	0.028400	10532	9836.1	0.030500	0.30000	0.0100000	40.000	1008.0	10355	0.011415	810.68	-16.775	755.85	-16.775	-13.443	10355		
814.06	300.00	0.29990	0.028800	10413	10302	0.029100	0.29980	0.0100000	40.000	1009.0	10362	0.012127	812.00	-17.994	757.17	-17.994	-13.421	10362		
815.39	300.00	0.30040	0.027800	10806	10621	0.028200	0.29950	0.0100000	40.000	1010.0	10298	0.0058354	813.32	-10.195	758.49	-10.195	-11.327	10298		
816.71	300.00	0.30000	0.029100	10309	10427	0.028800	0.30030	0.0100000	40.000	1011.0	10300	0.0060560	814.64	-10.571	759.81	-10.571	-8.2561	10300		
818.03	300.00	0.30090	0.029500	10200	10819	0.027600	0.29860	0.0100000	40.000	1012.0	10319	0.0078734	815.96	-1.1033	761.13	-1.1033	-3.3054	10319		
819.35	300.00	0.29970	0.028400	10553	10609	0.028400	0.30130	0.0100000	40.000	1013.0	10282	0.0042886	817.28	-1.4177	762.45	-1.4177	3.1213	10282		
820.67	300.00	0.30010	0.027800	10795	10820	0.027800	0.30080	0.0100000	40.000	1014.0	10300	0.0060074	818.60	6.7598	763.77	6.7598	8.6556	10300		
821.99	300.00	0.29940	0.027900	10731	10455	0.028800	0.30110	0.0100000	40.000	1015.0	10300	0.0060744	819.92	21.939	765.10	21.939	11.173	10300		
823.31	300.00	0.29970	0.026900	11141	10331	0.029000	0.29960	0.0100000	40.000	1016.0	10354	0.011341	821.24	17.101	766.42	17.101	12.496	10354		
824.63	300.00	0.30060	0.028800	10438	10377	0.028900	0.29990	0.0100000	40.000	1017.0	10399	0.015774	822.56	11.486	767.74	11.486	11.556	10399		
825.95	300.00	0.29930	0.027900	10728	9772.0	0.030700	0.30000	0.0100000	40.000	1018.0	10363	0.012189	823.88	5.1956	769.06	5.1956	7.7388	10363		
827.27	300.00	0.30020	0.028600	10497	10658	0.028100	0.29950	0.0100000	40.000	1019.0	10372	0.013060	825.20	2.0613	770.38	2.0613	3.4250	10372		
828.59	300.00	0.29980	0.030700	9765.5	9762.2	0.030700	0.29970	0.0100000	40.000	1020.0	10402	0.016050	826.53	2.8503	771.70	2.8503	-1.4447	10402		
829.91	300.00	0.29930	0.030800	9717.5	10074	0.029700	0.29920	0.0100000	40.000	1021.0	10393	0.015173	827.85	-4.4681	773.02	-4.4681	-6.5061	10393		
831.24	300.00	0.30070	0.031400	9576.4	10675	0.028000	0.29890	0.0100000	40.000	1022.0	10371	0.012971	829.17	-12.863	774.34	-12.863	-10.688	10371		
832.56	300.00	0.29940	0.027600	10848	9894.7	0.030400	0.30080	0.0100000	40.000	1023.0	10358	0.011717	830.49	-20.111	775.66	-20.111	-13.620	10358		
833.88	300.00	0.29960	0.029600	10122	10235	0.029400	0.30090	0.0100000	40.000	1024.0	10335	0.0094809	831.81	-18.847	776.98	-18.847	-13.525	10335		
835.20	300.00	0.29970	0.029300	10229	10139	0.029500	0.29910	0.0100000	40.000	1025.0	10278	0.0039463	833.13	-11.813	778.30	-11.813	-10.484	10278		
836.52	300.00	0.30060	0.025200	11929	10601	0.028300	0.30000	0.0100000	40.000	1026.0	10286	0.0047006	834.45	-3.9921	779.62	-3.9921	-7.3030	10286		
837.84	300.00	0.30040	0.030700	9785.0	10802	0.027800	0.30030	0.0100000	40.000	1027.0	10304	0.0064879	835.77	2.3443	780.94	2.3443	-4.7940	10304		
839.16	300.00	0.30050	0.026200	11469	10408	0.028900	0.30080	0.0100000	40.000	1028.0	10296	0.0056354	837.09	-4.2070	782.26	-4.2070	-2.4507	10296		
840.48	300.00	0.29910	0.029000	10314	10023	0.030000	0.30070	0.0100000	40.000	1029.0	10289	0.0049910	838.41	-6.3020	783.59	-6.3020	-1.4412	10289		
841.80	300.00	0.29890	0.028100	10637	10945	0.027400	0.29990	0.0100000	40.000	1030.0	10266	0.0027357	839.73	-0.096858	784.91	-0.096858	-0.73281	10266		
843.12	300.00	0.29960	0.030400	9855.3	10432	0.028700	0.29940	0.0100000	40.000	1031.0	10278	0.0038727	841.05	1.0554	786.23	1.0554	1.6688	10278		
844.44	300.00	0.30030	0.027500	10920	9953.6	0.030200	0.30060	0.0100000	40.000	1032.0	10301	0.0061322	842.37	5.8864	787.55	5.8864	3.6586	10301		
845.76	300.00	0.29970	0.029200	10264	10549	0.028400	0.29960	0.0100000	40.000	1033.0	10279	0.0039735	843.69	7.8012	788.87	7.8012	3.9786	10279		
847.08	300.00	0.30020	0.028600	10497	10128	0.029600	0.29980	0.0100000	40.000	1034.0	10304	0.0064819	845.01	3.6466	790.19	3.6466	2.4492	10304		
848.40	300.00	0.30080	0.030500	9862.3	9630.2	0.031100	0.29950	0.0100000	40.000	1035.0	10327	0.0087292	846.34	1.5033	791.51	1.5033	-1.4016	10327		
849.72	300.00	0.29950	0.028700	10436	10617	0.028200	0.29940	0.0100000	40.000	1036.0	10301	0.0061063	847.66	-6.5914	792.83	-6.5914	-4.1405	10301		
851.05	300.00	0.29960	0.028900	10367	10715	0.028100	0.30110	0.0100000	40.000	1037.0	10291	0.0051310	848.98	-13.367	794.15	-13.367	-6.0696	10291		
852.37	300.00	0.30070	0.028700	10477	10194	0.029400	0.29970	0.0100000	40.000	1038.0	10279	0.0040296	850.30	-5.8935	795.47	-5.8935	-8.1381	10279		
853.69	300.00	0.29990	0.028200	10635	9633.4	0.031100	0.29960	0.0100000	40.000	1039.0	10250	0.0011458	851.62	-5.9990	796.79	-5.9990	-6.1661	10250		
855.01	300.00	0.30070	0.029400	10228	10173	0.029400	0.29910	0.0100000	40.000	1040.0	10282	0.0042980	852.94	-8.8390	798.11	-8.8390	-2.2045	10282		
856.33	300.00	0.30000	0.030000	10000	10007	0.030000	0.30020	0.0100000	40.000	1041.0	10250	0.0011279	854.26	3.2683	799.43	3.2683	2.7778	10250		
857.65	300.00	0.30090	0.028500	10558	10560	0.028400	0.29990	0.0100000	40.000	1042.0	10221	-0.0016619	855.58	6.4404	800.75	6.4404	8.7856	10221		
858.97	300.00	0.29910	0.029100	10278	10211	0.029400	0.30020	0.0100000	40.000	1043.0	10302	0.0062336	856.90	19.018	802.07	19.018	12.936	10302		
860.29	300.00	0.30000	0.027400	10949	10434	0.028800	0.30050	0.0100000	40.000	1044.0	10298	0.0058990	858.22	24.040	803.39	24.040	14.656	10298		
861.61	300.00	0.30030	0.029500	10180	10718	0.028000	0.30010	0.0100000	40.000	1045.0	10336	0.0096135	859.54	11.915	804.72	11.915	14.511	10336		
862.93	300.00	0.30010	0.026600	11282	9575.1	0.031300	0.29970	0.0100000	40.000	1046.0	10362	0.012153	860.86	11.864	806.04	11.864	12.877	10362		
864.25	300.00	0.29990	0.031500	9520.6	10391	0.028900	0.30030	0.0100000	40.000	1047.0	10348	0.010791	862.18	5.7174	807.36	5.7174	11.615	10348		
865.57	300.00	0.29990	0.027800	10788	10565	0.028300	0.29900	0.0100000	40.000	1048.0	10371	0.012962	863.50	10.849	808.68	10.849	13.564	10371		
866.89	300.00	0.30000	0.028200	10638	9788.3	0.030700	0.30050	0.0100000	40.000	1049.0	10370	0.012896	864.82	17.729	810.00	17.729	16.268	10370		
868.21	300.00	0.30090	0.029000	10376	10701	0.028100	0.30070	0.0100000	40.000	1050.0	10423	0.018098	866.14	21.662	811.32	21.662	19.663	10423		
869.53	300.00	0.29990	0.028200	10635	10264	0.029200	0.29970	0.0100000	40.000	1051.0	10439	0.019658	867.47	25.384	812.64	25.384	21.271	10439		
870.86	300.00	0.29950	0.028900	10363	9832.2	0.030400	0.29890	0.0100000	40.000	1052.0	10479	0.023553	868.79	22.691	813.96	22.691	19.833	10479		
872.18	300.00	0.29990	0.028400	10560	11651	0.025800	0.30060	0.0100000	40.000	1053.0	10510	0.026541	870.11	18.891	815.28	18.891	18.522	10510		
873.50	300.00	0.29890	0.028600	10451	10477	0.028700	0.30070	0.0100000	40.000	1054.0	10538	0.029291	871.43	10.539	816.60	10.539	18.071	10538		
874.82	300.00	0.29960	0.028500	10512	10927	0.027400	0.29940	0.0100000	40.000	1055.0	10535	0.028973	872.75	15.107	817.92	15.107	18.429	10535		
876.14	300.00	0.30160	0.030300	9953.8	10176	0.029500	0.30020	0.0100000	40.000	1056.0	10536	0.029135	874.07	23.126	819.24	23.126	19.032	10536		
877.46	300.00	0.29830	0.029300	10181	10324	0.029000	0.29940	0.0100000	40.000	1057.0	10610	0.036363	875.39	24.480	820.56	24.480	19.291	10610		
878.78	300.00	0.30040	0.027200	11044	11182	0.026900	0.30080	0.0100000	40.000	1058.0	10653	0.040512	876.71	21.907	821.88	21.907	19.520	10653		
880.10	300.00	0.30020	0.026900	11160	10180	0.029500	0.30030	0.0100000	40.000	1059.0	10638	0.039073	878.03	11.835	823.20	11.835	19.726	10638		
881.42	300.00	0.30140	0.026800	11246	10752	0.027800	0.29890	0.0100000	40.000	1060.0	10667	0.041908	879.35	16.250	824.52	16.250	17.178	10667		
882.74	300.00	0.29950	0.029400	10187	10509	0.028500	0.29950	0.0100000	40.000	1061.0	10681	0.043299	880.67	24.156	825.85	24.156	13.826	10681		
884.06	300.00	0.29960	0.028100	10662	10844	0.027600	0.29930	0.0100000	40.000	1062.0	10738	0.048881	881.99	11.743	827.17	11.743	10.181	10738		
885.38	300.00	0.30060	0.029300	10259	11202	0.026700	0.29910	0.0100000	40.000	1063.0	10762	0.051169	883.31	5.1469	828.49	5.1469	6.0793	10762		
886.70	300.00	0.30040	0.029900	10047	10802	0.027800	0.30030	0.0100000	40.000	1064.0	10704	0.045547	884.63	-6.3894	829.81	-6.3894	3.3219	10704		
888.02	300.00	0.30100	0.030500	9868.9	10366	0.029000	0.30060	0.0100000	40.000	1065.0	10732	0.048285	885.96	-4.2600	831.13	-4.2600	2.4535	10732		
889.34	300.00	0.29980	0.028100	10669	10753	0.027900	0.30000	0.0100000	40.000	1066.0	10711	0.046202	887.28	10.369	832.45	10.369	3.1915	10711		
890.67	300.00	0.30060	0.030600	9823.5	11129	0.027100	0.30160	0.0100000	40.000	1067.0	10730	0.048094	888.60	7.4011	833.77	7.4011	5.4573	10730		
891.99	300.00	0.29940	0.029600	10115	11283	0.026500	0.29900	0.0100000	40.000	1068.0	10774	0.052331	889.92	8.8367	835.09	8.8367	6.6311	10774		
893.31	300.00	0.30010	0.028200	10642	10256	0.029300	0.30050	0.0100000	40.000	1069.0	10750	0.049994	891.24	4.9397	836.41	4.9397	5.5043	10750		
894.63	300.00	0.30140	0.027900	10803	10398	0.028900	0.30050	0.0100000	40.000	1070.0	10760	0.050951	892.56	1.6090	837.73	1.6090	4.6528	10760		
895.95	300.00	0.29960	0.029100	10296	11000	0.027300	0.30030	0.0100000	40.000	1071.0	10770	0.051969	893.88	4.7352	839.05	4.7352	1.1298	10770		
897.27	300.00	0.29970	0.028500	10516	11464	0.026300	0.30150	0.0100000	40.000	1072.0	10774	0.052381	895.20	3.1433	840.37	3.1433	-2.6633	10774		
898.59	300.00	0.29970	0.029200	10264	10324	0.029000	0.29940	0.0100000	40.000	1073.0	10774	0.052333	896.52	-8.7782	841.69	-8.7782	-5.8827	10774		
899.91	300.00	0.29940	0.028900	10360	10443	0.028700	0.29970	0.0100000	40.000	1074.0	10779	0.052796	897.84	-14.026	843.01	-14.026	-10.516	10779		
901.23	300.00	0.29970	0.028300	10590	11066	0.027300	0.30210	0.0100000	40.000	1075.0	10710	0.046100	899.16	-14.488	844.34	-14.488	-14.553	10710		
902.55	300.00	0.30180	0.030000	10060	10479	0.028800	0.30180	0.0100000	40.000	1076.0	10714	0.046451	900.48	-18.432	845.66	-18.432	-15.400	10714		
903.87	300.00	0.30020	0.028900	10388	10583	0.028300	0.29950	0.0100000	40.000	1077.0	10711	0.046161	901.80	-17.041	846.98	-17.041	-11.444	10711		
905.19	300.00	0.29910	0.027400	10916	11235	0.026800	0.30110	0.0100000	40.000	1078.0	10657	0.040878	903.12	-13.014	848.30	-13.014	-4.4721	10657		
906.51	300.00	0.29970	0.026900	11141	10680	0.028100	0.30010	0.0100000	40.000	1079.0	10626	0.037896	904.44	5.7540	849.62	5.7540	3.0979	10626		
907.83	300.00	0.30060	0.027300	11011	10385	0.028800	0.29910	0.0100000	40.000	1080.0	10670	0.042190	905.76	20.372	850.94	20.372	8.3489	10670		
909.15	300.00	0.30020	0.029900	10040	10971	0.027400	0.30060	0.0100000	40.000	1081.0	10742	0.049217	907.09	19.418	852.26	19.418	11.129	10742		
910.47	300.00	0.30060	0.030100	9986.7	10597	0.028300	0.29990	0.0100000	40.000	1082.0	10733	0.048357	908.41	9.2143	853.58	9.2143	9.8597	10733		
911.80	300.00	0.29920	0.028000	10686	10834	0.027700	0.30010	0.0100000	40.000	1083.0	10723	0.047336	909.73	0.88546	854.90	0.88546	6.5239	10723		
913.12	300.00	0.30050	0.024300	12366	11302	0.026500	0.29950	0.0100000	40.000	1084.0	10740	0.049073	911.05	-0.59166	856.22	-0.59166	4.2050	10740		
914.44	300.00	0.30100	0.027000	11148	9362.5	0.032000	0.29960	0.0100000	40.000	1085.0	10744	0.049430	912.37	3.6933	857.54	3.6933	3.4993	10744		
915.76	300.00	0.30100	0.028900	10415	10441	0.028800	0.30070	0.0100000	40.000	1086.0	10718	0.046929	913.69	7.8236	858.86	7.8236	4.6579	10718		
917.08	300.00	0.29980	0.030000	9993.3	10690	0.028100	0.30040	0.0100000	40.000	1087.0	10758	0.050791	915.01	5.6859	860.18	5.6859	5.1042	10758		
918.40	300.00	0.29970	0.029800	10057	9993.3	0.030000	0.29980	0.0100000	40.000	1088.0	10785	0.053439	916.33	6.6785	861.50	6.6785	4.3835	10785		
919.72	300.00	0.30000	0.028500	10526	10642	0.028200	0.30010	0.0100000	40.000	1089.0	10748	0.049842	917.65	1.6399	862.82	1.6399	4.3020	10748		
921.04	300.00	0.30020	0.028100	10683	11179	0.026800	0.29960	0.0100000	40.000	1090.0	10767	0.051711	918.97	0.089850	864.15	0.089850	3.6449	10767		
922.36	300.00	0.30050	0.028900	10398	11909	0.025200	0.30010	0.0100000	40.000	1091.0	10778	0.052712	920.29	7.4161	865.47	7.4161	2.5376	10778		
923.68	300.00	0.30030	0.028500	10537	10815	0.027600	0.29850	0.0100000	40.000	1092.0	10771	0.052062	921.61	2.4002	866.79	2.4002	3.7623	10771		
925.00	300.00	0.29970	0.026200	11439	11244	0.026600	0.29910	0.0100000	40.000	1093.0	10795	0.054450	922.93	1.1421	868.11	1.1421	5.9675	10795		
926.32	300.00	0.30010	0.028400	10567	10698	0.028100	0.30060	0.0100000	40.000	1094.0	10774	0.052390	924.25	7.7631	869.43	7.7631	7.4083	10774		
927.64	300.00	0.30050	0.027200	11048	10519	0.028500	0.29980	0.0100000	40.000	1095.0	10784	0.053285	925.57	11.116	870.75	11.116	10.055	10784		
928.96	300.00	0.29970	0.026900	11141	10528	0.028400	0.29900	0.0100000	40.000	1096.0	10828	0.057652	926.90	14.620	872.07	14.620	11.749	10828		
930.28	300.00	0.29930	0.026100	11467	11309	0.026500	0.29970	0.0100000	40.000	1097.0	10842	0.058990	928.22	15.632	873.39	15.632	11.291	10842		
931.61	300.00	0.29960	0.025200	11889	11152	0.026900	0.30000	0.0100000	40.000	1098.0	10842	0.058968	929.54	9.6149	874.71	9.6149	8.1999	10842		
932.93	300.00	0.29970	0.025800	11616	10462	0.028800	0.30130	0.0100000	40.000	1099.0	10880	0.062710	930.86	5.4730	876.03	5.4730	1.6567	10880		
934.25	300.00	0.29930	0.028800	10392	11081	0.027000	0.29920	0.0100000	40.000	1100.0	10873	0.061993	932.18	-4.3406	877.35	-4.3406	-6.1451	10873		
935.57	300.00	0.29990	0.029900	10030	10601	0.028300	0.30000	0.0100000	40.000	1101.0	10863	0.061007	933.50	-18.096	878.67	-18.096	-12.185	10863		
936.89	300.00	0.29890	0.028300	10562	10831	0.027800	0.30110	0.0100000	40.000	1102.0	10822	0.057019	934.82	-23.377	879.99	-23.377	-14.995	10822		
938.21	300.00	0.30070	0.029700	10125	11111	0.027100	0.30110	0.0100000	40.000	1103.0	10786	0.053524	936.14	-20.582	881.31	-20.582	-13.416	10786		
939.53	300.00	0.30000	0.028900	10381	10391	0.028900	0.30030	0.0100000	40.000	1104.0	10757	0.050656	937.46	-8.5790	882.63	-8.5790	-9.8788	10757		
940.85	300.00	0.30020	0.024700	12154	11494	0.026100	0.30000	0.0100000	40.000	1105.0	10759	0.050913	938.78	3.5544	883.96	3.5544	-6.7164	10759		
942.17	300.00	0.30000	0.025500	11765	10301	0.029200	0.30080	0.0100000	40.000	1106.0	10778	0.052792	940.10	-0.41069	885.28	-0.41069	-4.2609	10778		
943.49	300.00	0.29990	0.027800	10788	10729	0.028000	0.30040	0.0100000	40.000	1107.0	10799	0.054749	941.42	-7.5647	886.60	-7.5647	-3.0767	10799		
944.81	300.00	0.30000	0.027000	11111	10686	0.028000	0.29920	0.0100000	40.000	1108.0	10734	0.048473	942.74	-8.3044	887.92	-8.3044	-1.7978	10734		
946.13	300.00	0.30070	0.028400	10588	10798	0.027700	0.29910	0.0100000	40.000	1109.0	10731	0.048193	944.06	-2.6582	889.24	-2.6582	-0.43704	10731		
947.45	300.00	0.29950	0.026800	11175	10488	0.028700	0.30100	0.0100000	40.000	1110.0	10757	0.050714	945.39	9.9492	890.56	9.9492	1.0168	10757		
948.77	300.00	0.30050	0.029400	10221	10967	0.027300	0.29940	0.0100000	40.000	1111.0	10769	0.051914	946.71	6.3929	891.88	6.3929	1.9985	10769		
950.10	300.00	0.29880	0.027600	10826	11051	0.027200	0.30060	0.0100000	40.000	1112.0	10781	0.053030	948.03	-0.29542	893.20	-0.29542	0.87674	10781		
951.42	300.00	0.29900	0.027500	10873	10064	0.029800	0.29990	0.0100000	40.000	1113.0	10762	0.051158	949.35	-3.3960	894.52	-3.3960	-1.9367	10762		
952.74	300.00	0.29950	0.027100	11052	10628	0.028200	0.29970	0.0100000	40.000	1114.0	10759	0.050901	950.67	-8.2669	895.84	-8.2669	-3.4134	10759		
954.06	300.00	0.30080	0.029700	10128	10753	0.027900	0.30000	0.0100000	40.000	1115.0	10758	0.050788	951.99	-4.1180	897.16	-4.1180	-3.2283	10758		
955.38	300.00	0.30070	0.028400	10588	10923	0.027400	0.29930	0.0100000	40.000	1116.0	10728	0.047883	953.31	-0.99071	898.48	-0.99071	-3.0406	10728		
956.70	300.00	0.30060	0.027400	10971	10949	0.027400	0.30000	0.0100000	40.000	1117.0	10750	0.050011	954.63	0.63018	899.80	0.63018	-3.1670	10750		
958.02	300.00	0.29920	0.029600	10108	9960.1	0.030100	0.29980	0.0100000	40.000	1118.0	10757	0.050650	955.95	-2.4575	901.13	-2.4575	-3.3337	10757		
959.34	300.00	0.30080	0.030100	9993.4	11092	0.027100	0.30060	0.0100000	40.000	1119.0	10748	0.049811	957.27	-8.8988	902.45	-8.8988	-3.5190	10748		
960.66	300.00	0.29830	0.029200	10216	11004	0.027200	0.29930	0.0100000	40.000	1120.0	10713	0.046397	958.59	-4.9519	903.77	-4.9519	-2.4114	10713		
961.98	300.00	0.30110	0.029300	10276	11340	0.026500	0.30050	0.0100000	40.000	1121.0	10713	0.046397	959.91	-1.9172	905.09	-1.9172	0.72304	10713		
963.30	300.00	0.30050	0.029900	10050	10841	0.027600	0.29920	0.0100000	40.000	1122.0	10741	0.049163	961.23	6.1685	906.41	6.1685	4.5204	10741		
964.62	300.00	0.30070	0.027500	10935	10429	0.028700	0.29930	0.0100000	40.000	1123.0	10721	0.047191	962.55	13.215	907.73	13.215	6.6557	10721		
965.94	300.00	0.30090	0.028300	10633	11055	0.027100	0.29960	0.0100000	40.000	1124.0	10750	0.049979	963.88	10.088	909.05	10.088	6.2692	10750		
967.26	300.00	0.29910	0.025600	11684	10367	0.028900	0.29960	0.0100000	40.000	1125.0	10796	0.054513	965.20	5.7246	910.37	5.7246	5.0804	10796		
968.59	300.00	0.30030	0.030100	9976.7	10870	0.027600	0.30000	0.0100000	40.000	1126.0	10770	0.052008	966.52	-3.8495	911.69	-3.8495	5.0902	10770		
969.91	300.00	0.30070	0.027700	10856	10759	0.027800	0.29910	0.0100000	40.000	1127.0	10749	0.049869	967.84	0.22427	913.01	0.22427	5.5728	10749		
971.23	300.00	0.30000	0.028000	10714	10866	0.027600	0.29990	0.0100000	40.000	1128.0	10748	0.049818	969.16	13.264	914.33	13.264	5.5032	10748		
972.55	300.00	0.30160	0.029000	10400	10505	0.028500	0.29940	0.0100000	40.000	1129.0	10809	0.055752	970.48	12.501	915.65	12.501	3.5160	10809		
973.87	300.00	0.29920	0.026200	11420	10064	0.029700	0.29890	0.0100000	40.000	1130.0	10828	0.057622	971.80	5.3771	916.97	5.3771	-0.032909	10828		
975.19	300.00	0.29980	0.027400	10942	10488	0.028700	0.30100	0.0100000	40.000	1131.0	10791	0.054030	973.12	-13.786	918.29	-13.786	-5.2783	10791		
976.51	300.00	0.30020	0.028100	10683	11562	0.026000	0.30060	0.0100000	40.000	1132.0	10792	0.054148	974.44	-17.520	919.61	-17.520	-9.5937	10792		
977.83	300.00	0.30020	0.026800	11201	10628	0.028200	0.29970	0.0100000	40.000	1133.0	10736	0.048598	975.76	-12.963	920.94	-12.963	-10.667	10736		
979.15	300.00	0.29960	0.029100	10296	10663	0.028200	0.30070	0.0100000	40.000	1134.0	10740	0.049036	977.08	-9.0761	922.26	-9.0761	-6.5880	10740		
980.47	300.00	0.30090	0.026000	11573	11602	0.025900	0.30050	0.0100000	40.000	1135.0	10732	0.048223	978.40	0.0089570	923.58	0.0089570	-1.2961	10732		
981.79	300.00	0.30100	0.027300	11026	10214	0.029400	0.30030	0.0100000	40.000	1136.0	10734	0.048480	979.72	6.6108	924.90	6.6108	3.7894	10734		
983.11	300.00	0.30100	0.028100	10712	10463	0.028700	0.30030	0.0100000	40.000	1137.0	10738	0.048882	981.04	8.9390	926.22	8.9390	8.3784	10738		
984.43	300.00	0.29900	0.025700	11634	10938	0.027400	0.29970	0.0100000	40.000	1138.0	10780	0.052971	982.37	12.465	927.54	12.465	10.660	10780		
985.76	300.00	0.30050	0.028000	10732	11236	0.026700	0.30000	0.0100000	40.000	1139.0	10768	0.051744	983.69	13.869	928.86	13.869	10.842	10768		
987.08	300.00	0.30060	0.031800	9452.8	11494	0.026100	0.30000	0.0100000	40.000	1140.0	10802	0.055090	985.01	11.416	930.18	11.416	9.4108	10802		
988.40	300.00	0.29970	0.027200	11018	10231	0.029400	0.30080	0.0100000	40.000	1141.0	10819	0.056770	986.33	7.5201	931.50	7.5201	6.8415	10819		
989.72	300.00	0.30110	0.029100	10347	11365	0.026300	0.29890	0.0100000	40.000	1142.0	10830	0.057823	987.65	1.7844	932.82	1.7844	3.3457	10830		
991.04	300.00	0.30030	0.025200	11917	9647.4	0.031200	0.30100	0.0100000	40.000	1143.0	10803	0.055228	988.97	-0.38223	934.14	-0.38223	1.4593	10803		
992.36	300.00	0.29920	0.026900	11123	10523	0.028500	0.29990	0.0100000	40.000	1144.0	10822	0.057011	990.29	-3.6102	935.46	-3.6102	0.69665	10822		
993.68	300.00	0.29960	0.027400	10934	10880	0.027600	0.30030	0.0100000	40.000	1145.0	10821	0.056929	991.61	1.9846	936.79	1.9846	0.14283	10821		
995.00	300.00	0.30060	0.027400	10971	10422	0.028900	0.30120	0.0100000	40.000	1146.0	10797	0.054644	992.93	3.7068	938.11	3.7068	-0.96521	10797		
996.32	300.00	0.29980	0.029200	10267	10956	0.027200	0.29800	0.0100000	40.000	1147.0	10829	0.057692	994.25	-0.98472	939.43	-0.98472	-5.0407	10829		
997.64	300.00	0.30050	0.025100	11972	11638	0.025700	0.29910	0.0100000	40.000	1148.0	10842	0.059021	995.57	-5.9224	940.75	-5.9224	-9.5256	10842		
998.96	300.00	0.30020	0.029900	10040	10602	0.028400	0.30110	0.0100000	40.000	1149.0	10792	0.054106	996.89	-23.988	942.07	-23.988	-12.217	10792		
1000.3	300.00	0.29950	0.029500	10153	11225	0.026700	0.29970	0.0100000	40.000	1150.0	10777	0.052618	998.22	-20.440	943.39	-20.440	-11.509	10777		
1001.6	300.00	0.30070	0.028800	10441	10425	0.028700	0.29920	0.0100000	40.000	1151.0	10703	0.045421	999.54	-9.7524	944.71	-9.7524	-7.6842	10703		
1002.9	300.00	0.29980	0.028500	10519	10714	0.028000	0.30000	0.0100000	40.000	1152.0	10752	0.050181	1000.9	2.5578	946.03	2.5578	-1.5291	10752		
1004.2	300.00	0.29970	0.027900	10742	11004	0.027400	0.30150	0.0100000	40.000	1153.0	10740	0.049035	1002.2	13.201	947.35	13.201	2.5687	10740		
1005.6	300.00	0.30040	0.029900	10047	11011	0.027200	0.29950	0.0100000	40.000	1154.0	10775	0.052461	1003.5	6.7878	948.67	6.7878	2.2177	10775		
1006.9	300.00	0.29990	0.027400	10945	10645	0.028200	0.30020	0.0100000	40.000	1155.0	10779	0.052797	1004.8	0.049199	949.99	0.049199	-2.0474	10779		
1008.2	300.00	0.29970	0.027400	10938	11111	0.027000	0.30000	0.0100000	40.000	1156.0	10777	0.052679	1006.1	-11.507	951.31	-11.507	-8.1682	10777		
1009.5	300.00	0.30150	0.030000	10050	10870	0.027600	0.30000	0.0100000	40.000	1157.0	10739	0.048957	1007.5	-18.767	952.63	-18.767	-12.666	10739		
1010.8	300.00	0.30100	0.028900	10415	10749	0.027900	0.29990	0.0100000	40.000	1158.0	10719	0.046959	1008.8	-17.403	953.95	-17.403	-14.426	10719		
1012.2	300.00	0.30110	0.027100	11111	9881.2	0.030300	0.29940	0.0100000	40.000	1159.0	10684	0.043552	1010.1	-15.700	955.28	-15.700	-12.646	10684		
1013.5	300.00	0.30090	0.027700	10863	10916	0.027400	0.29910	0.0100000	40.000	1160.0	10690	0.044157	1011.4	-8.7530	956.60	-8.7530	-8.5155	10690		
1014.8	300.00	0.30080	0.025600	11750	9947.0	0.030200	0.30040	0.0100000	40.000	1161.0	10650	0.040231	1012.7	-2.6083	957.92	-2.6083	-5.1731	10650		
1016.1	300.00	0.29940	0.028900	10360	11255	0.026700	0.30050	0.0100000	40.000	1162.0	10678	0.042974	1014.1	1.8868	959.24	1.8868	-2.8786	10678		
1017.5	300.00	0.30000	0.027200	11029	11119	0.027000	0.30020	0.0100000	40.000	1163.0	10673	0.042462	1015.4	-0.69125	960.56	-0.69125	-2.2631	10673		
1018.8	300.00	0.29930	0.026200	11424	10384	0.028900	0.30010	0.0100000	40.000	1164.0	10691	0.044259	1016.7	-4.2274	961.88	-4.2274	-2.5911	10691		
1020.1	300.00	0.30060	0.028500	10547	10595	0.028400	0.30090	0.0100000	40.000	1165.0	10639	0.039142	1018.0	-5.6752	963.20	-5.6752	-2.5859	10639		
1021.4	300.00	0.30020	0.026900	11160	10855	0.027600	0.29960	0.0100000	40.000	1166.0	10667	0.041907	1019.3	-4.2486	964.52	-4.2486	-1.6273	10667		
1022.7	300.00	0.30060	0.027900	10774	9621.8	0.031200	0.30020	0.0100000	40.000	1167.0	10647	0.039978	1020.7	1.9129	965.84	1.9129	0.99569	10647		
1024.1	300.00	0.29950	0.028600	10472	10526	0.028500	0.30000	0.0100000	40.000	1168.0	10659	0.041101	1022.0	4.1016	967.16	4.1016	6.7101	10659		
1025.4	300.00	0.29910	0.027200	10996	10906	0.027600	0.30100	0.0100000	40.000	1169.0	10655	0.040779	1023.3	8.8878	968.48	8.8878	12.616	10655		
1026.7	300.00	0.29980	0.029600	10128	10732	0.028000	0.30050	0.0100000	40.000	1170.0	10690	0.044152	1024.6	22.897	969.80	22.897	16.884	10690		
1028.0	300.00	0.29910	0.027800	10759	10381	0.028900	0.30000	0.0100000	40.000	1171.0	10690	0.044186	1026.0	25.279	971.12	25.279	21.245	10690		
1029.3	300.00	0.30050	0.029500	10186	11015	0.027200	0.29960	0.0100000	40.000	1172.0	10793	0.054166	1027.3	23.257	972.44	23.257	23.547	10793		
1030.7	300.00	0.30050	0.027700	10848	10604	0.028300	0.30010	0.0100000	40.000	1173.0	10771	0.052074	1028.6	25.903	973.77	25.903	23.463	10771		
1032.0	300.00	0.30060	0.027600	10891	11390	0.026400	0.30070	0.0100000	40.000	1174.0	10803	0.055208	1029.9	20.401	975.09	20.401	22.371	10803		
1033.3	300.00	0.29970	0.027500	10898	9910.9	0.030300	0.30030	0.0100000	40.000	1175.0	10856	0.060371	1031.2	22.474	976.41	22.474	19.844	10856		
1034.6	300.00	0.29910	0.027000	11078	11240	0.026700	0.30010	0.0100000	40.000	1176.0	10885	0.063175	1032.6	19.819	977.73	19.819	16.241	10885		
1035.9	300.00	0.30140	0.026900	11204	10696	0.028000	0.29950	0.0100000	40.000	1177.0	10879	0.062586	1033.9	10.623	979.05	10.623	15.466	10879		
1037.3	300.00	0.30030	0.027600	10880	11111	0.027000	0.30000	0.0100000	40.000	1178.0	10923	0.066884	1035.2	7.8861	980.37	7.8861	16.250	10923		
1038.6	300.00	0.30110	0.028800	10455	10680	0.028100	0.30010	0.0100000	40.000	1179.0	10907	0.065369	1036.5	16.530	981.69	16.530	18.560	10907		
1039.9	300.00	0.30010	0.028800	10420	10606	0.028200	0.29910	0.0100000	40.000	1180.0	10923	0.066870	1037.8	26.391	983.01	26.391	21.507	10923		
1041.2	300.00	0.29980	0.027700	10823	10923	0.027400	0.29930	0.0100000	40.000	1181.0	10988	0.073255	1039.2	31.371	984.33	31.371	21.176	10988		
1042.5	300.00	0.29980	0.027500	10902	12093	0.024800	0.29990	0.0100000	40.000	1182.0	11057	0.079963	1040.5	25.354	985.65	25.354	17.906	11057		
1043.9	300.00	0.29980	0.027400	10942	10805	0.027700	0.29930	0.0100000	40.000	1183.0	11047	0.079055	1041.8	6.2340	986.97	6.2340	12.767	11047		
1045.2	300.00	0.30020	0.025700	11681	11792	0.025500	0.30070	0.0100000	40.000	1184.0	11060	0.080322	1043.1	0.17870	988.29	0.17870	6.9268	11060		
1046.5	300.00	0.29950	0.025500	11745	11494	0.026100	0.30000	0.0100000	40.000	1185.0	11027	0.077096	1044.4	0.69624	989.61	0.69624	3.2780	11027		
1047.8	300.00	0.30140	0.028900	10429	11198	0.026800	0.30010	0.0100000	40.000	1186.0	11068	0.081057	1045.8	2.1706	990.93	2.1706	3.8301	11068		
1049.2	300.00	0.30070	0.027300	11015	10729	0.028000	0.30040	0.0100000	40.000	1187.0	11048	0.079136	1047.1	7.1103	992.26	7.1103	8.1126	11048		
1050.5	300.00	0.30110	0.028300	10640	10546	0.028400	0.29950	0.0100000	40.000	1188.0	11064	0.080702	1048.4	8.9946	993.58	8.9946	12.985	11064		
1051.8	300.00	0.30060	0.025700	11697	10201	0.029400	0.29990	0.0100000	40.000	1189.0	11076	0.081859	1049.7	21.591	994.90	21.591	16.197	11076		
1053.1	300.00	0.30050	0.025600	11738	11228	0.026700	0.29980	0.0100000	40.000	1190.0	11113	0.085497	1051.0	25.057	996.22	25.057	15.661	11113		
1054.4	300.00	0.29950	0.026900	11134	12105	0.024800	0.30020	0.0100000	40.000	1191.0	11166	0.090666	1052.4	18.231	997.54	18.231	10.717	11166		
1055.8	300.00	0.29990	0.028800	10413	11823	0.025400	0.30030	0.0100000	40.000	1192.0	11185	0.092461	1053.7	4.4321	998.86	4.4321	1.7486	11185		
1057.1	300.00	0.30000	0.027200	11029	10819	0.027700	0.29970	0.0100000	40.000	1193.0	11161	0.090137	1055.0	-15.727	1000.2	-15.727	-6.3578	11161		
1058.4	300.00	0.29980	0.029200	10267	10877	0.027600	0.30020	0.0100000	40.000	1194.0	11145	0.088621	1056.3	-23.250	1001.5	-23.250	-10.457	11145		
1059.7	300.00	0.30010	0.027000	11115	10696	0.028000	0.29950	0.0100000	40.000	1195.0	11082	0.082440	1057.6	-15.474	1002.8	-15.474	-8.9985	11082		
1061.0	300.00	0.30030	0.025900	11595	10763	0.027800	0.29920	0.0100000	40.000	1196.0	11070	0.081313	1059.0	-2.2643	1004.1	-2.2643	-1.4801	11070		
1062.4	300.00	0.29970	0.028600	10479	10827	0.027700	0.29990	0.0100000	40.000	1197.0	11096	0.083809	1060.3	11.724	1005.5	11.724	7.4641	11096		
1063.7	300.00	0.29970	0.028100	10665	11033	0.027200	0.30010	0.0100000	40.000	1198.0	11123	0.086475	1061.6	21.865	1006.8	21.865	11.725	11123		
1065.0	300.00	0.29930	0.028700	10429	11360	0.026400	0.29990	0.0100000	40.000	1199.0	11133	0.087421	1062.9	21.471	1008.1	21.471	10.082	11133		
1066.3	300.00	0.29950	0.028100	10658	11462	0.026200	0.30030	0.0100000	40.000	1200.0	11196	0.093608	1064.3	5.8311	1009.4	5.8311	3.5402	11196		
1067.6	300.00	0.29990	0.027600	10866	11718	0.025500	0.29880	0.0100000	40.000	1201.0	11201	0.094090	1065.6	-10.482	1010.7	-10.482	-4.5956	11201		
1069.0	300.00	0.29930	0.027200	11004	11309	0.026500	0.29970	0.0100000	40.000	1202.0	11128	0.086904	1066.9	-20.984	1012.1	-20.984	-10.119	11128		
1070.3	300.00	0.29970	0.024100	12436	11593	0.025800	0.29910	0.0100000	40.000	1203.0	11098	0.084014	1068.2	-18.814	1013.4	-18.814	-10.631	11098		
1071.6	300.00	0.30010	0.026100	11498	10479	0.028600	0.29970	0.0100000	40.000	1204.0	11109	0.085111	1069.5	-6.1438	1014.7	-6.1438	-7.0156	11109		
1072.9	300.00	0.30050	0.024200	12417	10463	0.028700	0.30030	0.0100000	40.000	1205.0	11086	0.082851	1070.9	3.2670	1016.0	3.2670	1.2226	11086		
1074.2	300.00	0.29930	0.026900	11126	11252	0.026600	0.29930	0.0100000	40.000	1206.0	11093	0.083522	1072.2	7.5969	1017.3	7.5969	8.5549	11093		
1075.6	300.00	0.30000	0.028000	10714	11734	0.025600	0.30040	0.0100000	40.000	1207.0	11128	0.086916	1073.5	20.207	1018.7	20.207	11.145	11128		
1076.9	300.00	0.29970	0.025800	11616	11302	0.026500	0.29950	0.0100000	40.000	1208.0	11139	0.087979	1074.8	17.848	1020.0	17.848	9.4859	11139		
1078.2	300.00	0.29940	0.025400	11787	10749	0.027900	0.29990	0.0100000	40.000	1209.0	11197	0.093659	1076.1	6.8052	1021.3	6.8052	5.1027	11197		
1079.5	300.00	0.29920	0.027700	10801	11531	0.026000	0.29980	0.0100000	40.000	1210.0	11176	0.091662	1077.5	-5.0274	1022.6	-5.0274	-1.5695	11176		
1080.8	300.00	0.30080	0.027900	10781	11332	0.026500	0.30030	0.0100000	40.000	1211.0	11154	0.089463	1078.8	-14.319	1024.0	-14.319	-5.8308	11154		
1082.2	300.00	0.30000	0.027400	10949	10560	0.028400	0.29990	0.0100000	40.000	1212.0	11127	0.086834	1080.1	-13.154	1025.3	-13.154	-6.2043	11127		
1083.5	300.00	0.30110	0.026400	11405	11201	0.026800	0.30020	0.0100000	40.000	1213.0	11127	0.086834	1081.4	-3.4586	1026.6	-3.4586	-3.0943	11127		
1084.8	300.00	0.30000	0.029600	10135	11055	0.027100	0.29960	0.0100000	40.000	1214.0	11103	0.084489	1082.7	4.9376	1027.9	4.9376	2.0823	11103		
1086.1	300.00	0.29970	0.028000	10704	10391	0.028900	0.30030	0.0100000	40.000	1215.0	11143	0.088405	1084.1	10.523	1029.2	10.523	6.5033	11143		
1087.5	300.00	0.29970	0.027600	10859	10841	0.027600	0.29920	0.0100000	40.000	1216.0	11152	0.089234	1085.4	11.564	1030.6	11.564	9.0865	11152		
1088.8	300.00	0.30030	0.026700	11247	11492	0.026200	0.30110	0.0100000	40.000	1217.0	11172	0.091248	1086.7	8.9512	1031.9	8.9512	8.6422	11172		
1090.1	300.00	0.29820	0.027600	10804	11055	0.027100	0.29960	0.0100000	40.000	1218.0	11165	0.090526	1088.0	9.4574	1033.2	9.4574	6.9065	11165		
1091.4	300.00	0.30030	0.026600	11289	12254	0.024400	0.29900	0.0100000	40.000	1219.0	11196	0.093532	1089.3	2.7159	1034.5	2.7159	5.3995	11196		
1092.7	300.00	0.29950	0.028100	10658	10931	0.027400	0.29950	0.0100000	40.000	1220.0	11202	0.094192	1090.7	1.8441	1035.8	1.8441	4.6882	11202		
1094.1	300.00	0.30100	0.025000	12040	10989	0.027400	0.30110	0.0100000	40.000	1221.0	11171	0.091167	1092.0	4.0291	1037.2	4.0291	4.3726	11171		
1095.4	300.00	0.30080	0.027800	10820	11152	0.026900	0.30000	0.0100000	40.000	1222.0	11189	0.092898	1093.3	5.3942	1038.5	5.3942	6.7129	11189		
1096.7	300.00	0.29970	0.027000	11100	11309	0.026500	0.29970	0.0100000	40.000	1223.0	11229	0.096778	1094.6	7.8795	1039.8	7.8795	10.567	11229		
1098.0	300.00	0.29990	0.026700	11232	11089	0.027000	0.29940	0.0100000	40.000	1224.0	11209	0.094867	1096.0	14.418	1041.1	14.418	14.738	11209		
1099.3	300.00	0.29980	0.028900	10374	11321	0.026500	0.30000	0.0100000	40.000	1225.0	11213	0.095266	1097.3	21.114	1042.4	21.114	17.670	11213		
1100.7	300.00	0.30030	0.026800	11205	10642	0.028200	0.30010	0.0100000	40.000	1226.0	11292	0.10296	1098.6	24.884	1043.8	24.884	16.750	11292		
1102.0	300.00	0.29950	0.028200	10621	11685	0.025700	0.30030	0.0100000	40.000	1227.0	11327	0.10635	1099.9	20.053	1045.1	20.053	14.382	11327		
1103.3	300.00	0.30000	0.026500	11321	11579	0.025900	0.29990	0.0100000	40.000	1228.0	11317	0.10538	1101.2	3.2819	1046.4	3.2819	11.382	11317		
1104.6	300.00	0.29920	0.026900	11123	11948	0.025100	0.29990	0.0100000	40.000	1229.0	11333	0.10699	1102.6	2.5764	1047.7	2.5764	7.6846	11333		
1105.9	300.00	0.30000	0.027600	10870	10891	0.027500	0.29950	0.0100000	40.000	1230.0	11310	0.10475	1103.9	6.1151	1049.0	6.1151	5.0497	11310		
1107.3	300.00	0.30120	0.026900	11197	10880	0.027600	0.30030	0.0100000	40.000	1231.0	11347	0.10833	1105.2	6.3960	1050.4	6.3960	5.2891	11347		
1108.6	300.00	0.30060	0.027400	10971	11704	0.025700	0.30080	0.0100000	40.000	1232.0	11350	0.10865	1106.5	6.8789	1051.7	6.8789	6.0294	11350		
1109.9	300.00	0.29930	0.025400	11783	11394	0.026400	0.30080	0.0100000	40.000	1233.0	11356	0.10917	1107.8	4.4788	1053.0	4.4788	7.5795	11356		
1111.2	300.00	0.30040	0.025200	11921	10791	0.027700	0.29890	0.0100000	40.000	1234.0	11352	0.10877	1109.2	6.2782	1054.3	6.2782	8.9183	11352		
1112.5	300.00	0.29940	0.025600	11695	11141	0.026900	0.29970	0.0100000	40.000	1235.0	11376	0.11116	1110.5	13.865	1055.7	13.865	8.2793	11376		
1113.9	300.00	0.29870	0.025900	11533	12044	0.024900	0.29990	0.0100000	40.000	1236.0	11382	0.11171	1111.8	13.090	1057.0	13.090	5.9603	11382		
1115.2	300.00	0.29990	0.026000	11535	11571	0.025900	0.29970	0.0100000	40.000	1237.0	11432	0.11664	1113.1	3.6838	1058.3	3.6838	2.5782	11432		
1116.5	300.00	0.29910	0.026900	11119	11282	0.026600	0.30010	0.0100000	40.000	1238.0	11410	0.11447	1114.4	-7.1160	1059.6	-7.1160	-0.31328	11410		
1117.8	300.00	0.29930	0.028000	10689	11403	0.026300	0.29990	0.0100000	40.000	1239.0	11386	0.11215	1115.8	-10.632	1060.9	-10.632	-2.4601	11386		
1119.2	300.00	0.30150	0.027100	11125	11773	0.025500	0.30020	0.0100000	40.000	1240.0	11358	0.10936	1117.1	-0.59213	1062.3	-0.59213	-2.2233	11358		
1120.5	300.00	0.30040	0.027900	10767	11699	0.025600	0.29950	0.0100000	40.000	1241.0	11388	0.11234	1118.4	2.3558	1063.6	2.3558	-0.75570	11388		
1121.8	300.00	0.30000	0.027400	10949	11059	0.027100	0.29970	0.0100000	40.000	1242.0	11405	0.11399	1119.7	4.8678	1064.9	4.8678	2.1305	11405		
1123.1	300.00	0.29980	0.026800	11187	11263	0.026600	0.29960	0.0100000	40.000	1243.0	11378	0.11136	1121.0	0.22218	1066.2	0.22218	2.5194	11378		
1124.4	300.00	0.29920	0.027000	11081	11224	0.026800	0.30080	0.0100000	40.000	1244.0	11395	0.11300	1122.4	3.7986	1067.5	3.7986	1.3011	11395		
1125.8	300.00	0.30000	0.026200	11450	11602	0.025900	0.30050	0.0100000	40.000	1245.0	11395	0.11298	1123.7	1.3526	1068.9	1.3526	0.33609	11395		
1127.1	300.00	0.29960	0.027400	10934	11439	0.026200	0.29970	0.0100000	40.000	1246.0	11422	0.11563	1125.0	-3.7358	1070.2	-3.7358	0.29983	11422		
1128.4	300.00	0.29860	0.027000	11059	11703	0.025600	0.29960	0.0100000	40.000	1247.0	11374	0.11091	1126.3	0.042817	1071.5	0.042817	-0.91152	11374		
1129.7	300.00	0.30020	0.026300	11414	11217	0.026700	0.29950	0.0100000	40.000	1248.0	11381	0.11162	1127.7	0.040887	1072.8	0.040887	-3.9339	11381		
1131.0	300.00	0.30020	0.024800	12105	11081	0.027100	0.30030	0.0100000	40.000	1249.0	11416	0.11502	1129.0	-2.2581	1074.1	-2.2581	-6.4956	11416		
1132.4	300.00	0.29790	0.025500	11682	11348	0.026400	0.29960	0.0100000	40.000	1250.0	11401	0.11361	1130.3	-13.759	1075.5	-13.759		11401		
1133.7	300.00	0.30040	0.026600	11293	11531	0.026000	0.29980	0.0100000	40.000	1251.0	11348	0.10846	1131.6	-16.544	1076.8	-16.544		11348		
1135.0	300.00	0.30000	0.025800	11628	11236	0.026700	0.30000	0.0100000	40.000	1252.0	11323	0.10602	1132.9		1078.1			11323		
1136.3	300.00	0.30120	0.027200	11074	11138	0.026900	0.29960	0.0100000	40.000	1253.0	11345	0.10814	1134.3		1079.4			11345		
1137.6	300.00	0.29910	0.026000	11504	11746	0.025600	0.30070	0.0100000	40.000	1254.0			1135.6		1080.7					
1139.0	300.00	0.30010	0.026100	11498	10788	0.027800	0.29990	0.0100000	40.000	1255.0			1136.9		1082.1					
1140.3	300.00	0.30010	0.024300	12350	11711	0.025600	0.29980	0.0100000	40.000	1256.0			1138.2		1083.4					
1141.6	300.00	0.29950	0.025900	11564	11029	0.027200	0.30000	0.0100000	40.000	1257.0			1139.5		1084.7					
1142.9	300.00	0.30070	0.026500	11347	11724	0.025700	0.30130	0.0100000	40.000	1258.0			1140.9		1086.0					
1144.2	300.00	0.29960	0.027800	10777	12012	0.024900	0.29910	0.0100000	40.000	1259.0			1142.2		1087.4					
1145.6	300.00	0.29930	0.025500	11737	11100	0.027000	0.29970	0.0100000	40.000	1260.0			1143.5		1088.7					
1146.9	300.00	0.29940	0.027100	11048	10667	0.028200	0.30080	0.0100000	40.000	1261.0			1144.8		1090.0					
1148.2	300.00	0.29970	0.024500	12233	11175	0.026900	0.30060	0.0100000	40.000	1262.0			1146.1		1091.3					
1149.5	300.00	0.29870	0.026500	11272	11513	0.026100	0.30050	0.0100000	40.000	1263.0			1147.5		1092.6					
