Tiempo (min)	I pulso(mA)	Vinst 1 (V)	Iinst 1 (mA)	Rinst 1(Ohm)	Rrem 1 (Ohm)	Ibias 1 (mA)	Vbias 1 (V)	Ancho pulso (s)	Periodo (s)	N	W	Rrem-Ro/Ro	t-to	t-tor	dW/dt	dW/dt-tor	S_dW	WR	T	U	V
0.34450	3000.0	3.0008	0.56050	5353.8	10880	0.027600	0.30030	1.0000	5.0000	1.0000											
0.56463	3000.0	2.9993	0.57340	5230.7	10532	0.028400	0.29910	1.0000	5.0000	2.0000											
0.78478	3000.0	3.0009	0.57860	5186.5	9924.1	0.030300	0.30070	1.0000	5.0000	3.0000											
1.0050	3000.0	2.9989	0.58050	5166.1	9865.6	0.030500	0.30090	1.0000	5.0000	4.0000											
1.2252	3000.0	3.0004	0.58950	5089.7	9737.0	0.030800	0.29990	1.0000	5.0000	5.0000											
1.4467	3000.0	3.0013	0.58880	5097.3	10738	0.027900	0.29960	1.0000	5.0000	6.0000											
1.6671	3000.0	2.9985	0.59220	5063.3	9649.5	0.031100	0.30010	1.0000	5.0000	7.0000											
1.8876	3000.0	3.0002	0.59510	5041.5	10128	0.029700	0.30080	1.0000	5.0000	8.0000											
2.1077	3000.0	2.9998	0.59800	5016.4	9871.7	0.030400	0.30010	1.0000	5.0000	9.0000											
2.3279	3000.0	3.0005	0.60050	4996.7	10360	0.028900	0.29940	1.0000	5.0000	10.000											
2.5481	3000.0	3.0006	0.59890	5010.2	9437.1	0.031800	0.30010	1.0000	5.0000	11.000	9968.9	-4.5062e-07	1.1916e-05	-40.348							
2.7683	3000.0	3.0005	0.60260	4979.3	9806.6	0.030500	0.29910	1.0000	5.0000	12.000	9898.3	-0.0070811	0.22023	-40.128							
2.9885	3000.0	2.9993	0.60430	4963.3	9424.5	0.031800	0.29970	1.0000	5.0000	13.000	9833.5	-0.013579	0.44039	-39.908	-162.19	-162.19					
3.2087	3000.0	3.0004	0.60380	4969.2	10077	0.029800	0.30030	1.0000	5.0000	14.000	9846.7	-0.012258	0.66058	-39.687	-116.03	-116.03					
3.4289	3000.0	3.0003	0.60680	4944.5	10334	0.029000	0.29970	1.0000	5.0000	15.000	9816.1	-0.015323	0.88078	-39.467	-145.09	-145.09	-170.62				
3.6496	3000.0	2.9995	0.60580	4951.3	9127.7	0.032900	0.30030	1.0000	5.0000	16.000	9779.2	-0.019030	1.1015	-39.246	-210.58	-210.57	-176.44				
3.8697	3000.0	3.0000	0.60920	4924.5	9465.2	0.031600	0.29910	1.0000	5.0000	17.000	9707.4	-0.026228	1.3216	-39.026	-219.19	-219.19	-185.86				
4.0899	3000.0	3.0005	0.61160	4906.0	9623.8	0.031100	0.29930	1.0000	5.0000	18.000	9669.1	-0.030077	1.5418	-38.806	-191.31	-191.31	-180.12				
4.3101	3000.0	3.0004	0.61130	4908.2	10260	0.029200	0.29960	1.0000	5.0000	19.000	9629.8	-0.034016	1.7620	-38.586	-163.13	-163.13	-146.64				
4.5303	3000.0	2.9994	0.61390	4885.8	10054	0.029800	0.29960	1.0000	5.0000	20.000	9607.4	-0.036263	1.9822	-38.366	-116.41	-116.41	-95.502				
4.7505	3000.0	3.0008	0.61310	4894.5	10050	0.029900	0.30050	1.0000	5.0000	21.000	9558.7	-0.041152	2.2024	-38.145	-43.154	-43.154	-48.643				
4.9707	3000.0	3.0004	0.61520	4877.1	9398.1	0.031900	0.29980	1.0000	5.0000	22.000	9576.5	-0.039365	2.4226	-37.925	36.496	36.496	-30.005				
5.1909	3000.0	3.0008	0.61760	4858.8	9171.3	0.032700	0.29990	1.0000	5.0000	23.000	9597.8	-0.037231	2.6428	-37.705	42.986	42.986	-32.784				
5.4110	3000.0	2.9992	0.62130	4827.3	10201	0.029400	0.29990	1.0000	5.0000	24.000	9628.0	-0.034193	2.8629	-37.485	-69.943	-69.943	-51.751				
5.6312	3000.0	3.0005	0.61910	4846.6	9223.9	0.032600	0.30070	1.0000	5.0000	25.000	9580.2	-0.038991	3.0831	-37.265	-130.30	-130.30	-75.961				
5.8513	3000.0	3.0002	0.61880	4848.4	8961.1	0.033400	0.29930	1.0000	5.0000	26.000	9508.2	-0.046209	3.3032	-37.045	-137.99	-137.99	-94.510				
6.0714	3000.0	3.0008	0.61810	4854.9	9231.5	0.032400	0.29910	1.0000	5.0000	27.000	9514.2	-0.045610	3.5233	-36.825	-84.555	-84.555	-97.555				
6.2916	3000.0	3.0002	0.62150	4827.4	8843.7	0.033900	0.29980	1.0000	5.0000	28.000	9509.1	-0.046120	3.7435	-36.604	-49.760	-49.760	-93.309				
6.5117	3000.0	3.0011	0.62460	4804.8	9303.4	0.032300	0.30050	1.0000	5.0000	29.000	9486.7	-0.048372	3.9636	-36.384	-85.168	-85.168	-87.849				
6.7320	3000.0	3.0000	0.62280	4817.0	9401.3	0.031900	0.29990	1.0000	5.0000	30.000	9467.2	-0.050322	4.1839	-36.164	-109.07	-109.07	-87.042				
6.9521	3000.0	2.9990	0.62550	4794.6	9336.4	0.032100	0.29970	1.0000	5.0000	31.000	9441.4	-0.052914	4.4040	-35.944	-110.69	-110.69	-94.608				
7.1731	3000.0	2.9998	0.62690	4785.1	9811.1	0.030700	0.30120	1.0000	5.0000	32.000	9411.6	-0.055903	4.6250	-35.723	-80.523	-80.523	-90.269				
7.3933	3000.0	2.9997	0.62730	4781.9	10253	0.029200	0.29940	1.0000	5.0000	33.000	9392.5	-0.057819	4.8452	-35.503	-87.587	-87.587	-66.775				
7.6135	3000.0	2.9995	0.62720	4782.4	10060	0.029800	0.29980	1.0000	5.0000	34.000	9403.0	-0.056771	5.0654	-35.282	-63.472	-63.472	-41.748				
7.8337	3000.0	2.9994	0.62950	4764.7	9072.7	0.033000	0.29940	1.0000	5.0000	35.000	9349.2	-0.062160	5.2856	-35.062	8.3937	8.3937	-20.233				
8.0539	3000.0	3.0006	0.63260	4743.3	8823.5	0.034000	0.30000	1.0000	5.0000	36.000	9363.4	-0.060742	5.5058	-34.842	14.449	14.449	-11.950				
8.2741	3000.0	2.9992	0.62920	4766.7	9253.1	0.032400	0.29980	1.0000	5.0000	37.000	9421.6	-0.054905	5.7260	-34.622	27.050	27.050	-22.839				
8.4943	3000.0	3.0004	0.62890	4770.9	9358.3	0.032100	0.30040	1.0000	5.0000	38.000	9382.7	-0.058802	5.9462	-34.402	-46.168	-46.168	-42.295				
8.7144	3000.0	2.9998	0.63270	4741.3	9152.4	0.032800	0.30020	1.0000	5.0000	39.000	9369.3	-0.060143	6.1663	-34.182	-117.92	-117.92	-61.656				
8.9346	3000.0	2.9999	0.63260	4742.2	9852.0	0.030400	0.29950	1.0000	5.0000	40.000	9338.6	-0.063222	6.3865	-33.961	-88.883	-88.883	-87.210				
9.1548	3000.0	3.0008	0.63430	4730.9	9511.1	0.031500	0.29960	1.0000	5.0000	41.000	9313.8	-0.065718	6.6067	-33.741	-82.356	-82.356	-105.80				
9.3751	3000.0	3.0005	0.63710	4709.6	9424.5	0.031800	0.29970	1.0000	5.0000	42.000	9312.6	-0.065831	6.8270	-33.521	-100.72	-100.72	-109.99				
9.5953	3000.0	2.9995	0.63450	4727.3	8997.0	0.033400	0.30050	1.0000	5.0000	43.000	9291.7	-0.067935	7.0472	-33.301	-139.13	-139.13	-109.57				
9.8154	3000.0	2.9993	0.63710	4707.7	9390.6	0.032000	0.30050	1.0000	5.0000	44.000	9238.8	-0.073238	7.2673	-33.081	-138.87	-138.87	-100.56				
10.036	3000.0	2.9998	0.63490	4724.8	9072.5	0.033100	0.30030	1.0000	5.0000	45.000	9197.5	-0.077380	7.4875	-32.860	-86.782	-86.781	-84.296				
10.256	3000.0	2.9998	0.63600	4716.7	9520.6	0.031500	0.29990	1.0000	5.0000	46.000	9206.8	-0.076445	7.7076	-32.640	-37.301	-37.301	-68.187				
10.476	3000.0	3.0000	0.64150	4676.5	10183	0.029500	0.30040	1.0000	5.0000	47.000	9212.1	-0.075914	7.9278	-32.420	-19.393	-19.393	-56.831				
10.696	3000.0	3.0006	0.63960	4691.4	8415.7	0.035600	0.29960	1.0000	5.0000	48.000	9190.4	-0.078090	8.1481	-32.200	-58.584	-58.585	-58.651				
10.916	3000.0	2.9995	0.64000	4686.7	8562.9	0.035000	0.29970	1.0000	5.0000	49.000	9184.4	-0.078699	8.3682	-31.980	-82.093	-82.093	-72.133				
11.137	3000.0	3.0010	0.64030	4686.9	8659.0	0.034600	0.29960	1.0000	5.0000	50.000	9156.2	-0.081523	8.5885	-31.759	-95.882	-95.882	-81.539				
11.357	3000.0	3.0000	0.64230	4670.7	8878.7	0.033800	0.30010	1.0000	5.0000	51.000	9138.8	-0.083265	8.8086	-31.539	-104.71	-104.71	-78.288				
11.577	3000.0	2.9996	0.64110	4678.8	9312.7	0.032300	0.30080	1.0000	5.0000	52.000	9107.6	-0.086396	9.0289	-31.319	-66.424	-66.424	-68.616				
11.797	3000.0	3.0000	0.64230	4670.7	9370.7	0.032100	0.30080	1.0000	5.0000	53.000	9093.4	-0.087827	9.2491	-31.099	-42.330	-42.330	-55.184				
12.017	3000.0	2.9993	0.64250	4668.2	9143.3	0.032800	0.29990	1.0000	5.0000	54.000	9105.8	-0.086578	9.4693	-30.879	-33.733	-33.733	-49.431				
12.238	3000.0	3.0001	0.64550	4647.7	9193.3	0.032600	0.29970	1.0000	5.0000	55.000	9093.1	-0.087849	9.6895	-30.658	-28.721	-28.721	-46.678				
12.458	3000.0	2.9998	0.64540	4648.0	9268.5	0.032400	0.30030	1.0000	5.0000	56.000	9070.6	-0.090111	9.9098	-30.438	-75.944	-75.944	-42.231				
12.678	3000.0	3.0003	0.64730	4635.1	8934.5	0.033600	0.30020	1.0000	5.0000	57.000	9079.3	-0.089233	10.130	-30.218	-52.661	-52.661	-33.530				
12.898	3000.0	3.0000	0.64920	4621.1	8797.7	0.034100	0.30000	1.0000	5.0000	58.000	9029.1	-0.094274	10.350	-29.998	-20.098	-20.098	-15.567				
13.118	3000.0	2.9998	0.64830	4627.2	9230.8	0.032500	0.30000	1.0000	5.0000	59.000	9055.9	-0.091584	10.570	-29.778	9.7765	9.7765	1.9621				
13.339	3000.0	3.0003	0.64930	4620.8	8561.3	0.035100	0.30050	1.0000	5.0000	60.000	9060.2	-0.091156	10.791	-29.557	61.091	61.091	7.6419				
13.559	3000.0	2.9998	0.64860	4625.0	9487.3	0.031600	0.29980	1.0000	5.0000	61.000	9074.6	-0.089713	11.011	-29.337	11.702	11.702	0.39212				
13.779	3000.0	2.9994	0.65210	4599.6	8855.5	0.033900	0.30020	1.0000	5.0000	62.000	9087.0	-0.088461	11.231	-29.117	-24.263	-24.263	-17.974				
13.999	3000.0	2.9994	0.65060	4610.2	9125.0	0.032800	0.29930	1.0000	5.0000	63.000	9055.4	-0.091639	11.451	-28.897	-56.347	-56.346	-43.271				
14.219	3000.0	3.0003	0.65190	4602.4	9258.5	0.032500	0.30090	1.0000	5.0000	64.000	9043.1	-0.092873	11.671	-28.677	-82.054	-82.054	-61.629				
14.440	3000.0	2.9987	0.65010	4612.7	9124.6	0.032900	0.30020	1.0000	5.0000	65.000	9034.5	-0.093729	11.892	-28.456	-65.393	-65.393	-73.308				
14.660	3000.0	2.9998	0.65370	4589.0	8598.9	0.034900	0.30010	1.0000	5.0000	66.000	9007.1	-0.096478	12.112	-28.236	-80.087	-80.087	-77.686				
14.880	3000.0	2.9999	0.65330	4591.9	9704.5	0.030800	0.29890	1.0000	5.0000	67.000	9001.3	-0.097059	12.332	-28.016	-82.662	-82.662	-74.958				
15.100	3000.0	2.9993	0.65270	4595.2	9127.7	0.032900	0.30030	1.0000	5.0000	68.000	8971.5	-0.10005	12.552	-27.796	-78.236	-78.236	-75.311				
15.321	3000.0	3.0006	0.65530	4579.0	8979.0	0.033400	0.29990	1.0000	5.0000	69.000	8961.3	-0.10107	12.773	-27.575	-68.413	-68.413	-74.923				
15.541	3000.0	3.0008	0.65670	4569.5	8652.3	0.034800	0.30110	1.0000	5.0000	70.000	8941.0	-0.10311	12.993	-27.355	-67.159	-67.159	-79.786				
15.761	3000.0	2.9995	0.65480	4580.8	8961.2	0.033500	0.30020	1.0000	5.0000	71.000	8941.2	-0.10309	13.213	-27.135	-78.144	-78.144	-93.555				
15.981	3000.0	3.0004	0.65400	4587.8	9140.7	0.032700	0.29890	1.0000	5.0000	72.000	8907.6	-0.10646	13.433	-26.915	-106.98	-106.98	-105.64				
16.201	3000.0	2.9997	0.65640	4569.9	8647.4	0.034600	0.29920	1.0000	5.0000	73.000	8892.0	-0.10803	13.653	-26.695	-147.08	-147.08	-107.18				
16.422	3000.0	2.9994	0.65860	4554.2	9112.5	0.032900	0.29980	1.0000	5.0000	74.000	8847.8	-0.11246	13.874	-26.474	-128.85	-128.85	-97.603				
16.642	3000.0	3.0008	0.65860	4556.3	8964.1	0.033400	0.29940	1.0000	5.0000	75.000	8809.1	-0.11634	14.094	-26.254	-74.859	-74.859	-83.301				
16.862	3000.0	2.9995	0.65930	4549.5	8617.8	0.034800	0.29990	1.0000	5.0000	76.000	8807.1	-0.11654	14.314	-26.034	-30.247	-30.247	-70.329				
17.083	3000.0	3.0000	0.66210	4531.0	9146.8	0.032700	0.29910	1.0000	5.0000	77.000	8829.9	-0.11425	14.534	-25.813	-35.472	-35.472	-67.769				
17.303	3000.0	2.9996	0.65740	4562.8	8307.5	0.036100	0.29990	1.0000	5.0000	78.000	8804.1	-0.11684	14.755	-25.593	-82.216	-82.216	-74.600				
17.523	3000.0	2.9998	0.66340	4521.9	8584.5	0.034900	0.29960	1.0000	5.0000	79.000	8771.6	-0.12011	14.975	-25.373	-116.05	-116.05	-94.812				
17.710	3000.0	3.0002	0.66380	4519.7	8803.5	0.034100	0.30020	1.0000	3.0000	80.000	8747.7	-0.12250	15.162	-25.186	-109.01	-109.01	-117.77				
17.864	3000.0	3.0010	0.66300	4526.4	8567.0	0.035100	0.30070	1.0000	3.0000	81.000	8745.1	-0.12276	15.316	-25.032	-131.31	-131.31	-137.96				
18.017	3000.0	2.9984	0.66770	4490.6	8780.1	0.034100	0.29940	1.0000	3.0000	82.000	8721.9	-0.12509	15.469	-24.879	-150.27	-150.27	-155.55				
18.171	3000.0	3.0000	0.66670	4499.8	8528.4	0.035200	0.30020	1.0000	3.0000	83.000	8678.7	-0.12943	15.622	-24.725	-183.14	-183.14	-168.26				
18.324	3000.0	2.9994	0.66640	4500.9	8196.7	0.036600	0.30000	1.0000	3.0000	84.000	8665.5	-0.13074	15.776	-24.572	-204.03	-204.03	-171.30				
18.478	3000.0	2.9986	0.66760	4491.6	8446.6	0.035600	0.30070	1.0000	3.0000	85.000	8632.8	-0.13403	15.930	-24.418	-172.54	-172.54	-158.25				
18.631	3000.0	3.0001	0.66830	4489.2	9081.6	0.033100	0.30060	1.0000	3.0000	86.000	8588.3	-0.13850	16.083	-24.265	-146.51	-146.51	-130.57				
18.785	3000.0	2.9998	0.67090	4471.3	9078.5	0.033100	0.30050	1.0000	3.0000	87.000	8584.9	-0.13883	16.237	-24.111	-85.015	-85.015	-104.56				
18.938	3000.0	2.9998	0.67000	4477.3	9162.1	0.032700	0.29960	1.0000	3.0000	88.000	8577.0	-0.13962	16.390	-23.958	-44.774	-44.774	-87.693				
19.092	3000.0	3.0000	0.67250	4461.0	8444.8	0.035300	0.29810	1.0000	3.0000	89.000	8573.1	-0.14002	16.544	-23.804	-73.960	-73.960	-78.964				
19.245	3000.0	2.9998	0.67300	4457.4	8477.4	0.035400	0.30010	1.0000	3.0000	90.000	8559.8	-0.14135	16.697	-23.651	-88.199	-88.199	-85.184				
19.399	3000.0	3.0002	0.67270	4459.9	8598.9	0.034900	0.30010	1.0000	3.0000	91.000	8536.7	-0.14367	16.851	-23.497	-102.87	-102.87	-99.758				
19.552	3000.0	2.9998	0.67090	4471.3	8473.2	0.035500	0.30080	1.0000	3.0000	92.000	8527.5	-0.14459	17.004	-23.344	-116.12	-116.12	-105.84				
19.706	3000.0	2.9997	0.67420	4449.3	8232.9	0.036500	0.30050	1.0000	3.0000	93.000	8510.3	-0.14632	17.158	-23.190	-117.64	-117.64	-113.15				
19.860	3000.0	2.9986	0.67500	4442.4	8371.5	0.035800	0.29970	1.0000	3.0000	94.000	8483.8	-0.14897	17.311	-23.036	-104.35	-104.35	-123.32				
20.013	3000.0	2.9999	0.67450	4447.6	8424.2	0.035600	0.29990	1.0000	3.0000	95.000	8468.2	-0.15054	17.465	-22.883	-124.78	-124.78	-141.05				
20.167	3000.0	2.9994	0.67670	4432.4	8029.4	0.037400	0.30030	1.0000	3.0000	96.000	8468.4	-0.15052	17.618	-22.729	-153.68	-153.68	-158.68				
20.320	3000.0	3.0004	0.67960	4415.0	8547.0	0.035100	0.30000	1.0000	3.0000	97.000	8422.2	-0.15515	17.772	-22.576	-204.78	-204.78	-166.50				
20.474	3000.0	2.9996	0.68040	4408.6	8982.0	0.033300	0.29910	1.0000	3.0000	98.000	8388.9	-0.15850	17.926	-22.422	-205.81	-205.81	-161.43				
20.627	3000.0	2.9998	0.68000	4411.5	8224.7	0.036500	0.30020	1.0000	3.0000	99.000	8350.7	-0.16232	18.079	-22.269	-143.46	-143.46	-142.77				
20.781	3000.0	2.9993	0.68030	4408.8	8304.7	0.036100	0.29980	1.0000	3.0000	100.00	8346.1	-0.16279	18.233	-22.115	-99.406	-99.406	-111.13				
20.935	3000.0	3.0000	0.67740	4428.7	8319.4	0.036000	0.29950	1.0000	3.0000	101.00	8333.4	-0.16406	18.387	-21.961	-60.393	-60.393	-77.474				
21.088	3000.0	3.0004	0.68070	4407.8	8373.3	0.035900	0.30060	1.0000	3.0000	102.00	8321.2	-0.16528	18.540	-21.808	-46.606	-46.606	-55.703				
21.242	3000.0	2.9999	0.68170	4400.6	8418.5	0.035600	0.29970	1.0000	3.0000	103.00	8316.8	-0.16572	18.694	-21.654	-37.507	-37.507	-43.383				
21.395	3000.0	2.9992	0.68500	4378.4	7973.5	0.037700	0.30060	1.0000	3.0000	104.00	8318.6	-0.16554	18.847	-21.501	-34.604	-34.604	-50.334				
21.549	3000.0	2.9998	0.68730	4364.6	7868.4	0.038000	0.29900	1.0000	3.0000	105.00	8305.9	-0.16682	19.001	-21.347	-37.804	-37.804	-71.220				
21.702	3000.0	2.9991	0.68650	4368.7	8450.7	0.035500	0.30000	1.0000	3.0000	106.00	8300.1	-0.16740	19.154	-21.194	-95.152	-95.152	-97.675				
21.856	3000.0	2.9998	0.69080	4342.5	8111.1	0.036900	0.29930	1.0000	3.0000	107.00	8297.1	-0.16771	19.308	-21.040	-151.03	-151.03	-123.08				
22.009	3000.0	2.9997	0.69070	4343.0	8378.8	0.035900	0.30080	1.0000	3.0000	108.00	8250.0	-0.17242	19.461	-20.887	-169.79	-169.79	-137.75				
22.163	3000.0	2.9995	0.69070	4342.7	8361.1	0.036000	0.30100	1.0000	3.0000	109.00	8215.0	-0.17593	19.615	-20.733	-161.60	-161.60	-130.78				
22.316	3000.0	3.0001	0.68990	4348.6	8347.2	0.036000	0.30050	1.0000	3.0000	110.00	8210.8	-0.17636	19.768	-20.580	-111.15	-111.15	-107.61				
22.470	3000.0	2.9990	0.69140	4337.6	8211.0	0.036500	0.29970	1.0000	3.0000	111.00	8192.6	-0.17818	19.922	-20.426	-60.318	-60.318	-69.827				
22.623	3000.0	2.9997	0.69150	4338.0	8342.6	0.035900	0.29950	1.0000	3.0000	112.00	8175.9	-0.17986	20.075	-20.273	-35.207	-35.207	-26.465				
22.777	3000.0	3.0009	0.68870	4357.3	8381.0	0.035700	0.29920	1.0000	3.0000	113.00	8186.2	-0.17883	20.229	-20.119	19.148	19.148	4.3410				
22.930	3000.0	3.0009	0.69500	4317.8	8270.7	0.036200	0.29940	1.0000	3.0000	114.00	8187.0	-0.17875	20.382	-19.966	55.208	55.208	23.386				
23.084	3000.0	3.0009	0.69260	4332.8	8104.8	0.037200	0.30150	1.0000	3.0000	115.00	8201.8	-0.17726	20.536	-19.812	42.874	42.874	37.006				
23.237	3000.0	3.0005	0.69170	4337.9	8301.9	0.036100	0.29970	1.0000	3.0000	116.00	8210.5	-0.17639	20.689	-19.659	34.910	34.910	40.561				
23.391	3000.0	3.0012	0.69190	4337.6	7965.6	0.037800	0.30110	1.0000	3.0000	117.00	8207.3	-0.17671	20.843	-19.505	32.889	32.889	34.547				
23.545	3000.0	2.9999	0.69160	4337.6	7559.2	0.039700	0.30010	1.0000	3.0000	118.00	8211.0	-0.17634	20.997	-19.351	36.926	36.926	27.016				
23.698	3000.0	3.0006	0.69300	4329.9	8247.3	0.036400	0.30020	1.0000	3.0000	119.00	8226.8	-0.17476	21.150	-19.198	25.135	25.135	19.073				
23.852	3000.0	3.0006	0.69110	4341.8	8135.5	0.036900	0.30020	1.0000	3.0000	120.00	8229.1	-0.17452	21.304	-19.044	5.2196	5.2196	8.5760				
24.005	3000.0	2.9994	0.69350	4325.0	7923.5	0.037900	0.30030	1.0000	3.0000	121.00	8217.6	-0.17568	21.457	-18.891	-4.8053	-4.8053	-3.4366				
24.159	3000.0	2.9999	0.69450	4319.5	7968.1	0.037600	0.29960	1.0000	3.0000	122.00	8219.6	-0.17547	21.611	-18.737	-19.595	-19.595	-16.221				
24.312	3000.0	2.9992	0.69390	4322.2	8589.1	0.034800	0.29890	1.0000	3.0000	123.00	8227.8	-0.17465	21.764	-18.584	-23.137	-23.137	-28.672				
24.466	3000.0	2.9996	0.69510	4315.4	8435.4	0.035600	0.30030	1.0000	3.0000	124.00	8208.9	-0.17654	21.918	-18.430	-38.785	-38.785	-30.711				
24.619	3000.0	2.9997	0.69330	4326.7	8284.5	0.036200	0.29990	1.0000	3.0000	125.00	8205.2	-0.17692	22.071	-18.277	-57.036	-57.036	-20.992				
24.773	3000.0	3.0001	0.69710	4303.7	8050.9	0.037300	0.30030	1.0000	3.0000	126.00	8201.2	-0.17732	22.225	-18.123	-15.002	-15.002	-9.9954				
24.926	3000.0	3.0000	0.69630	4308.5	8384.8	0.035600	0.29850	1.0000	3.0000	127.00	8187.9	-0.17865	22.378	-17.970	29.002	29.002	-0.53593				
25.080	3000.0	3.0009	0.69820	4298.1	8188.0	0.036700	0.30050	1.0000	3.0000	128.00	8206.0	-0.17684	22.532	-17.816	31.844	31.844	0.33304				
25.234	3000.0	3.0000	0.69590	4311.0	8710.1	0.034500	0.30050	1.0000	3.0000	129.00	8225.0	-0.17493	22.686	-17.662	8.5119	8.5119	-14.287				
25.387	3000.0	2.9998	0.69770	4299.6	8410.1	0.035600	0.29940	1.0000	3.0000	130.00	8207.1	-0.17673	22.839	-17.509	-52.691	-52.691	-40.890				
25.541	3000.0	3.0006	0.69730	4303.2	8105.1	0.037100	0.30070	1.0000	3.0000	131.00	8193.9	-0.17805	22.993	-17.355	-88.101	-88.101	-69.551				
25.694	3000.0	2.9997	0.69660	4306.2	8253.4	0.036300	0.29960	1.0000	3.0000	132.00	8181.1	-0.17934	23.146	-17.202	-104.02	-104.02	-90.309				
25.848	3000.0	2.9999	0.69930	4289.9	8515.6	0.035300	0.30060	1.0000	3.0000	133.00	8170.4	-0.18042	23.300	-17.048	-111.46	-111.46	-90.616				
26.002	3000.0	2.9993	0.70070	4280.4	7984.0	0.037500	0.29940	1.0000	3.0000	134.00	8139.0	-0.18356	23.453	-16.894	-95.277	-95.277	-76.653				
26.155	3000.0	2.9998	0.70030	4283.6	8191.3	0.036600	0.29980	1.0000	3.0000	135.00	8129.4	-0.18453	23.607	-16.741	-54.227	-54.227	-56.730				
26.309	3000.0	3.0003	0.69940	4289.8	8021.3	0.037500	0.30080	1.0000	3.0000	136.00	8128.4	-0.18462	23.761	-16.587	-18.286	-18.286	-46.562				
26.462	3000.0	2.9997	0.70230	4271.3	8023.9	0.037600	0.30170	1.0000	3.0000	137.00	8134.0	-0.18406	23.914	-16.434	-4.4015	-4.4015	-50.383				
26.616	3000.0	2.9984	0.69950	4286.5	8345.4	0.035900	0.29960	1.0000	3.0000	138.00	8122.7	-0.18520	24.068	-16.280	-60.619	-60.619	-67.020				
26.769	3000.0	2.9996	0.70300	4266.9	7957.7	0.037800	0.30080	1.0000	3.0000	139.00	8128.9	-0.18458	24.221	-16.127	-114.38	-114.38	-94.423				
26.923	3000.0	2.9996	0.70240	4270.5	7871.4	0.038100	0.29990	1.0000	3.0000	140.00	8084.5	-0.18903	24.375	-15.973	-137.41	-137.41	-122.72				
27.076	3000.0	3.0008	0.70270	4270.4	7859.0	0.038300	0.30100	1.0000	3.0000	141.00	8065.3	-0.19095	24.528	-15.820	-155.30	-155.30	-138.97				
27.230	3000.0	2.9991	0.70320	4264.9	7653.9	0.039300	0.30080	1.0000	3.0000	142.00	8049.0	-0.19259	24.682	-15.666	-145.89	-145.89	-145.41				
27.384	3000.0	2.9995	0.70210	4272.2	7742.3	0.038800	0.30040	1.0000	3.0000	143.00	8027.4	-0.19476	24.835	-15.512	-141.86	-141.86	-136.56				
27.537	3000.0	3.0000	0.70330	4265.6	7931.2	0.037800	0.29980	1.0000	3.0000	144.00	7991.4	-0.19837	24.989	-15.359	-146.60	-146.60	-109.19				
27.691	3000.0	3.0004	0.70340	4265.6	8232.9	0.036500	0.30050	1.0000	3.0000	145.00	7985.2	-0.19899	25.142	-15.205	-93.154	-93.154	-81.169				
27.844	3000.0	3.0014	0.70360	4265.8	8264.5	0.036300	0.30000	1.0000	3.0000	146.00	7957.5	-0.20177	25.296	-15.052	-18.423	-18.423	-55.758				
27.998	3000.0	3.0002	0.70480	4256.8	8168.5	0.036800	0.30060	1.0000	3.0000	147.00	7972.8	-0.20023	25.450	-14.898	-5.8080	-5.8080	-36.972				
28.151	3000.0	3.0006	0.70370	4264.0	8146.3	0.036900	0.30060	1.0000	3.0000	148.00	7983.4	-0.19917	25.603	-14.745	-14.810	-14.810	-30.980				
28.305	3000.0	2.9995	0.70540	4252.2	8318.6	0.036100	0.30030	1.0000	3.0000	149.00	7967.7	-0.20074	25.757	-14.591	-52.667	-52.667	-30.746				
28.459	3000.0	2.9994	0.70540	4252.1	7777.2	0.038600	0.30020	1.0000	3.0000	150.00	7948.7	-0.20265	25.910	-14.437	-63.191	-63.191	-22.213				
28.612	3000.0	2.9995	0.70800	4236.6	8008.0	0.037500	0.30030	1.0000	3.0000	151.00	7949.8	-0.20254	26.064	-14.284	-17.253	-17.253	-9.8989				
28.766	3000.0	2.9991	0.70900	4230.0	7761.7	0.038600	0.29960	1.0000	3.0000	152.00	7943.9	-0.20313	26.218	-14.130	36.858	36.858	2.5550				
28.919	3000.0	3.0006	0.71000	4226.2	7800.5	0.038600	0.30110	1.0000	3.0000	153.00	7956.9	-0.20183	26.371	-13.977	46.758	46.758	2.5677				
29.073	3000.0	3.0003	0.70920	4230.5	7759.7	0.038700	0.30030	1.0000	3.0000	154.00	7973.4	-0.20017	26.524	-13.823	9.6030	9.6030	-14.175				
29.226	3000.0	3.0008	0.70870	4234.2	7853.4	0.038200	0.30000	1.0000	3.0000	155.00	7970.9	-0.20042	26.678	-13.670	-63.128	-63.128	-43.972				
29.380	3000.0	2.9995	0.71170	4214.6	7610.1	0.039500	0.30060	1.0000	3.0000	156.00	7944.3	-0.20309	26.832	-13.516	-100.97	-100.97	-73.417				
29.533	3000.0	2.9998	0.71180	4214.4	8342.6	0.035900	0.29950	1.0000	3.0000	157.00	7923.0	-0.20523	26.985	-13.363	-112.13	-112.13	-91.405				
29.687	3000.0	3.0015	0.71340	4207.3	8247.3	0.036400	0.30020	1.0000	3.0000	158.00	7919.9	-0.20554	27.139	-13.209	-100.47	-100.47	-89.064				
29.840	3000.0	3.0005	0.70820	4236.8	8016.0	0.037400	0.29980	1.0000	3.0000	159.00	7897.1	-0.20783	27.292	-13.056	-80.337	-80.337	-70.533				
29.994	3000.0	3.0011	0.71260	4211.5	7556.7	0.039700	0.30000	1.0000	3.0000	160.00	7880.1	-0.20953	27.446	-12.902	-51.423	-51.423	-45.710				
30.147	3000.0	3.0004	0.71080	4221.2	7894.5	0.037900	0.29920	1.0000	3.0000	161.00	7881.2	-0.20942	27.599	-12.749	-8.3131	-8.3131	-17.908				
30.301	3000.0	2.9986	0.71190	4212.1	7736.4	0.038700	0.29940	1.0000	3.0000	162.00	7888.3	-0.20871	27.753	-12.595	11.991	11.991	1.3433				
30.454	3000.0	3.0001	0.71250	4210.7	7926.1	0.037900	0.30040	1.0000	3.0000	163.00	7886.6	-0.20888	27.906	-12.442	38.544	38.544	19.261				
30.608	3000.0	2.9996	0.71250	4210.0	8088.9	0.037100	0.30010	1.0000	3.0000	164.00	7886.6	-0.20888	28.060	-12.288	15.917	15.917	20.848				
30.761	3000.0	2.9990	0.71390	4200.9	7879.3	0.038100	0.30020	1.0000	3.0000	165.00	7911.6	-0.20637	28.213	-12.135	38.166	38.166	6.3971				
30.915	3000.0	3.0002	0.71540	4193.7	7673.5	0.039200	0.30080	1.0000	3.0000	166.00	7888.0	-0.20874	28.367	-11.981	-0.37970	-0.37970	-15.988				
31.068	3000.0	3.0000	0.71340	4205.2	7817.2	0.038300	0.29940	1.0000	3.0000	167.00	7915.2	-0.20601	28.520	-11.828	-60.263	-60.263	-32.855				
31.222	3000.0	2.9994	0.71420	4199.7	8103.0	0.036900	0.29900	1.0000	3.0000	168.00	7884.6	-0.20908	28.674	-11.674	-73.381	-73.381	-45.920				
31.376	3000.0	2.9993	0.71810	4176.7	7667.5	0.039100	0.29980	1.0000	3.0000	169.00	7867.1	-0.21084	28.828	-11.520	-68.416	-68.416	-46.399				
31.529	3000.0	2.9993	0.71550	4191.9	7962.8	0.037600	0.29940	1.0000	3.0000	170.00	7855.7	-0.21198	28.981	-11.367	-27.160	-27.160	-41.215				
31.683	3000.0	2.9998	0.71740	4181.5	7799.5	0.038400	0.29950	1.0000	3.0000	171.00	7877.1	-0.20983	29.135	-11.213	-2.7763	-2.7763	-42.477				
31.836	3000.0	3.0004	0.71630	4188.7	8158.0	0.036700	0.29940	1.0000	3.0000	172.00	7858.7	-0.21168	29.288	-11.060	-34.340	-34.340	-42.020				
31.990	3000.0	2.9992	0.71750	4180.1	7724.9	0.038900	0.30050	1.0000	3.0000	173.00	7863.4	-0.21120	29.442	-10.906	-79.694	-79.694	-50.526				
32.143	3000.0	2.9995	0.72030	4164.2	7801.6	0.038300	0.29880	1.0000	3.0000	174.00	7836.2	-0.21394	29.595	-10.753	-66.129	-66.129	-53.478				
32.297	3000.0	3.0002	0.71860	4175.1	8284.5	0.036200	0.29990	1.0000	3.0000	175.00	7827.2	-0.21484	29.749	-10.599	-69.692	-69.692	-51.354				
32.450	3000.0	2.9995	0.71890	4172.3	7357.8	0.040800	0.30020	1.0000	3.0000	176.00	7826.1	-0.21495	29.902	-10.446	-17.534	-17.534	-39.609				
32.604	3000.0	3.0008	0.71870	4175.3	8180.3	0.036600	0.29940	1.0000	3.0000	177.00	7815.0	-0.21606	30.056	-10.292	-23.722	-23.722	-35.522				
32.758	3000.0	2.9998	0.71990	4167.0	7700.0	0.039000	0.30030	1.0000	3.0000	178.00	7828.8	-0.21468	30.209	-10.138	-20.967	-20.967	-36.379				
32.911	3000.0	3.0003	0.72300	4149.8	7879.6	0.038200	0.30100	1.0000	3.0000	179.00	7807.6	-0.21681	30.363	-9.9849	-45.694	-45.694	-51.359				
33.065	3000.0	3.0003	0.72110	4160.7	7777.8	0.038700	0.30100	1.0000	3.0000	180.00	7813.7	-0.21620	30.517	-9.8313	-73.977	-73.977	-62.046				
33.218	3000.0	3.0007	0.72350	4147.5	8005.3	0.037500	0.30020	1.0000	3.0000	181.00	7787.5	-0.21882	30.670	-9.6778	-92.437	-92.437	-62.729				
33.372	3000.0	3.0001	0.72340	4147.2	7508.8	0.039900	0.29960	1.0000	3.0000	182.00	7782.1	-0.21937	30.824	-9.5241	-77.157	-77.157	-62.752				
33.525	3000.0	3.0008	0.72240	4153.9	7835.5	0.038300	0.30010	1.0000	3.0000	183.00	7752.4	-0.22234	30.977	-9.3706	-24.378	-24.378	-56.667				
33.679	3000.0	2.9996	0.72190	4155.1	7353.8	0.040700	0.29930	1.0000	3.0000	184.00	7772.0	-0.22038	31.131	-9.2171	-45.813	-45.813	-58.552				
33.832	3000.0	2.9995	0.72370	4144.7	7899.7	0.037900	0.29940	1.0000	3.0000	185.00	7773.8	-0.22019	31.284	-9.0636	-43.550	-43.550	-63.992				
33.986	3000.0	2.9989	0.72420	4141.0	7856.4	0.038300	0.30090	1.0000	3.0000	186.00	7736.2	-0.22397	31.438	-8.9101	-101.86	-101.86	-73.793				
34.140	3000.0	2.9986	0.72260	4149.7	7440.3	0.040200	0.29910	1.0000	3.0000	187.00	7736.8	-0.22390	31.592	-8.7559	-104.36	-104.36	-76.555				
34.294	3000.0	3.0000	0.72390	4144.2	8107.8	0.037100	0.30080	1.0000	3.0000	188.00	7712.1	-0.22638	31.746	-8.6023	-73.381	-73.381	-79.780				
34.447	3000.0	3.0003	0.72190	4156.1	7657.3	0.039100	0.29940	1.0000	3.0000	189.00	7705.6	-0.22704	31.899	-8.4487	-59.623	-59.623	-73.810				
34.601	3000.0	2.9995	0.72530	4135.5	7795.3	0.038600	0.30090	1.0000	3.0000	190.00	7695.4	-0.22806	32.053	-8.2951	-59.677	-59.677	-63.832				
34.755	3000.0	2.9990	0.72470	4138.3	7412.3	0.040500	0.30020	1.0000	3.0000	191.00	7699.4	-0.22766	32.206	-8.1414	-72.008	-72.008	-56.511				
34.908	3000.0	3.0007	0.72610	4132.6	7686.2	0.039200	0.30130	1.0000	3.0000	192.00	7669.4	-0.23067	32.360	-7.9878	-54.473	-54.473	-44.993				
35.062	3000.0	2.9994	0.72730	4124.0	7535.2	0.039800	0.29990	1.0000	3.0000	193.00	7663.3	-0.23128	32.514	-7.8343	-36.774	-36.774	-42.547				
35.215	3000.0	2.9999	0.72830	4119.0	8135.5	0.036900	0.30020	1.0000	3.0000	194.00	7671.6	-0.23044	32.667	-7.6809	-2.0343	-2.0343	-41.472				
35.369	3000.0	3.0002	0.72680	4128.0	7840.3	0.038200	0.29950	1.0000	3.0000	195.00	7670.0	-0.23060	32.821	-7.5273	-47.446	-47.446	-49.287				
35.522	3000.0	3.0001	0.72840	4118.8	7495.0	0.040000	0.29980	1.0000	3.0000	196.00	7664.5	-0.23116	32.974	-7.3739	-66.630	-66.630	-58.564				
35.676	3000.0	3.0009	0.72890	4117.0	7371.0	0.040700	0.30000	1.0000	3.0000	197.00	7630.5	-0.23457	33.128	-7.2204	-93.549	-93.549	-69.225				
35.829	3000.0	2.9989	0.73070	4104.1	7661.6	0.039300	0.30110	1.0000	3.0000	198.00	7640.3	-0.23359	33.281	-7.0669	-83.162	-83.162	-67.288				
35.983	3000.0	3.0000	0.72700	4126.5	7562.8	0.039800	0.30100	1.0000	3.0000	199.00	7610.3	-0.23659	33.435	-6.9134	-55.336	-55.336	-54.204				
36.136	3000.0	2.9998	0.73080	4104.8	7665.8	0.039200	0.30050	1.0000	3.0000	200.00	7610.7	-0.23656	33.588	-6.7599	-37.763	-37.763	-40.394				
36.290	3000.0	2.9994	0.72980	4109.9	7861.3	0.038200	0.30030	1.0000	3.0000	201.00	7602.8	-0.23735	33.742	-6.6064	-1.2109	-1.2109	-36.396				
36.443	3000.0	3.0004	0.73090	4105.1	7375.3	0.040500	0.29870	1.0000	3.0000	202.00	7615.1	-0.23612	33.895	-6.4529	-24.495	-24.495	-51.111				
36.597	3000.0	3.0004	0.73260	4095.6	7380.8	0.040700	0.30040	1.0000	3.0000	203.00	7607.2	-0.23690	34.049	-6.2994	-63.176	-63.176	-68.658				
36.750	3000.0	3.0006	0.73330	4091.9	8010.7	0.037400	0.29960	1.0000	3.0000	204.00	7589.7	-0.23866	34.202	-6.1459	-128.91	-128.91	-89.385				
36.904	3000.0	3.0010	0.73410	4088.0	7320.3	0.040900	0.29940	1.0000	3.0000	205.00	7567.0	-0.24094	34.356	-5.9923	-125.50	-125.50	-102.82				
37.057	3000.0	2.9996	0.73500	4081.1	7782.4	0.038600	0.30040	1.0000	3.0000	206.00	7536.2	-0.24402	34.509	-5.8388	-104.85	-104.85	-99.346				
37.211	3000.0	3.0010	0.73270	4095.8	7142.9	0.042000	0.30000	1.0000	3.0000	207.00	7537.6	-0.24389	34.663	-5.6852	-91.660	-91.660	-82.384				
37.364	3000.0	2.9992	0.73630	4073.3	7646.3	0.039300	0.30050	1.0000	3.0000	208.00	7523.9	-0.24526	34.816	-5.5316	-45.818	-45.818	-64.697				
37.518	3000.0	2.9993	0.73440	4084.0	7478.8	0.040100	0.29990	1.0000	3.0000	209.00	7502.8	-0.24738	34.970	-5.3778	-44.096	-44.096	-46.306				
37.672	3000.0	3.0004	0.73480	4083.3	7665.0	0.039100	0.29970	1.0000	3.0000	210.00	7518.5	-0.24581	35.124	-5.2241	-37.063	-37.063	-31.104				
37.826	3000.0	3.0007	0.73420	4087.0	7629.4	0.039400	0.30060	1.0000	3.0000	211.00	7506.4	-0.24701	35.278	-5.0703	-12.895	-12.895	-24.880				
37.980	3000.0	2.9994	0.73410	4085.8	7670.1	0.039100	0.29990	1.0000	3.0000	212.00	7493.6	-0.24831	35.432	-4.9163	-15.646	-15.646	-14.789				
38.134	3000.0	3.0007	0.73520	4081.5	7521.3	0.039900	0.30010	1.0000	3.0000	213.00	7505.3	-0.24713	35.586	-4.7621	-14.702	-14.702	-13.168				
38.288	3000.0	2.9999	0.73660	4072.6	7167.1	0.041900	0.30030	1.0000	3.0000	214.00	7507.0	-0.24696	35.740	-4.6082	6.3592	6.3592	-19.850				
38.442	3000.0	3.0004	0.73880	4061.2	7659.0	0.039300	0.30100	1.0000	3.0000	215.00	7488.4	-0.24882	35.894	-4.4542	-28.959	-28.959	-30.789				
38.596	3000.0	3.0001	0.73730	4069.0	7194.2	0.041700	0.30000	1.0000	3.0000	216.00	7506.9	-0.24697	36.048	-4.3004	-46.305	-46.305	-47.124				
38.749	3000.0	2.9998	0.73890	4059.8	7523.8	0.039900	0.30020	1.0000	3.0000	217.00	7483.1	-0.24936	36.201	-4.1469	-70.340	-70.340	-57.571				
38.903	3000.0	3.0004	0.73780	4066.7	7082.7	0.042300	0.29960	1.0000	3.0000	218.00	7474.0	-0.25026	36.355	-3.9931	-96.376	-96.376	-54.022				
39.056	3000.0	3.0001	0.74210	4042.7	7218.2	0.041700	0.30100	1.0000	3.0000	219.00	7450.8	-0.25260	36.508	-3.8396	-45.875	-45.875	-42.505				
39.210	3000.0	3.0013	0.73810	4066.3	7892.1	0.038000	0.29990	1.0000	3.0000	220.00	7449.0	-0.25277	36.662	-3.6860	-11.216	-11.216	-29.838				
39.364	3000.0	2.9993	0.74000	4053.1	7413.4	0.040400	0.29950	1.0000	3.0000	221.00	7460.3	-0.25164	36.816	-3.5324	11.282	11.282	-12.290				
39.517	3000.0	2.9994	0.73720	4068.6	7590.9	0.039600	0.30060	1.0000	3.0000	222.00	7460.7	-0.25161	36.969	-3.3788	-7.0082	-7.0082	-1.3258				
39.671	3000.0	3.0000	0.73930	4057.9	7621.8	0.039400	0.30030	1.0000	3.0000	223.00	7453.6	-0.25231	37.123	-3.2252	-8.6358	-8.6358	10.908				
39.824	3000.0	3.0000	0.73990	4054.6	7415.8	0.040400	0.29960	1.0000	3.0000	224.00	7447.0	-0.25298	37.276	-3.0716	8.9492	8.9492	22.140				
39.978	3000.0	2.9999	0.73780	4066.0	7620.9	0.039300	0.29950	1.0000	3.0000	225.00	7460.5	-0.25162	37.430	-2.9180	49.952	49.952	41.155				
40.132	3000.0	3.0006	0.74140	4047.2	7708.8	0.038800	0.29910	1.0000	3.0000	226.00	7464.1	-0.25126	37.583	-2.7644	67.443	67.443	71.783				
40.285	3000.0	3.0004	0.74260	4040.4	7281.6	0.041200	0.30000	1.0000	3.0000	227.00	7483.4	-0.24932	37.737	-2.6109	88.067	88.067	102.89				
40.439	3000.0	3.0003	0.74020	4053.4	6953.6	0.043100	0.29970	1.0000	3.0000	228.00	7487.3	-0.24893	37.891	-2.4574	144.50	144.50	130.31				
40.592	3000.0	3.0003	0.74090	4049.5	7157.9	0.041800	0.29920	1.0000	3.0000	229.00	7516.5	-0.24600	38.044	-2.3035	164.49	164.49	149.15				
40.746	3000.0	2.9999	0.74250	4040.3	7441.7	0.040300	0.29990	1.0000	3.0000	230.00	7558.5	-0.24179	38.198	-2.1500	187.05	187.05	151.21				
40.900	2500.0	2.4995	0.57400	4354.5	7902.6	0.038000	0.30030	1.0000	3.0000	231.00	7574.2	-0.24022	38.351	-1.9965	161.66	161.66	142.52				
41.053	2000.0	1.9993	0.42530	4700.9	7636.1	0.039300	0.30010	1.0000	3.0000	232.00	7602.1	-0.23742	38.505	-1.8430	98.328	98.328	120.05				
41.207	1500.0	1.5017	0.29520	5087.1	7522.6	0.039800	0.29940	1.0000	3.0000	233.00	7618.8	-0.23574	38.658	-1.6895	101.06	101.06	84.485				
41.360	1000.0	1.0005	0.17750	5636.6	7381.8	0.040600	0.29970	1.0000	3.0000	234.00	7611.7	-0.23646	38.812	-1.5359	52.149	52.149	51.807				
41.514	500.00	0.50000	0.078000	6410.3	7451.6	0.040300	0.30030	1.0000	3.0000	235.00	7647.0	-0.23292	38.965	-1.3825	9.2241	9.2241	33.939				
41.667	600.00	0.59890	0.093000	6439.8	7733.3	0.039000	0.30160	1.0000	3.0000	236.00	7628.1	-0.23481	39.119	-1.2290	-1.7256	-1.7256	30.008				
41.821	700.00	0.70000	0.11430	6124.2	7601.0	0.039600	0.30100	1.0000	3.0000	237.00	7617.7	-0.23585	39.272	-1.0755	8.9859	8.9859	47.217				
41.974	800.00	0.80120	0.13050	6139.5	7605.1	0.039500	0.30040	1.0000	3.0000	238.00	7625.0	-0.23512	39.426	-0.92195	81.404	81.404	63.351				
42.128	900.00	0.89860	0.15220	5904.1	7696.7	0.038900	0.29940	1.0000	3.0000	239.00	7655.4	-0.23207	39.580	-0.76837	138.20	138.20	70.407				
42.281	800.00	0.80080	0.13200	6066.7	8099.5	0.037200	0.30130	1.0000	3.0000	240.00	7671.7	-0.23044	39.733	-0.61470	89.893	89.893	68.853				
42.435	700.00	0.70000	0.11160	6272.4	8221.3	0.036600	0.30090	1.0000	3.0000	241.00	7700.5	-0.22755	39.887	-0.46119	33.554	33.554	55.669				
42.588	500.00	0.49910	0.074300	6717.4	8000.0	0.037400	0.29920	1.0000	3.0000	242.00	7671.5	-0.23046	40.040	-0.30770	1.2174	1.2174	48.054				
42.742	300.00	0.29930	0.039800	7520.1	7941.8	0.037800	0.30020	1.0000	3.0000	243.00	7681.3	-0.22947	40.194	-0.15369	15.484	15.484	55.490				
42.896	300.00	0.30050	0.036300	8278.2	7471.3	0.040100	0.29960	0.0100000	3.0000	244.00	7682.2	-0.22938	40.348	0.00030127	100.12	100.12	72.992	7682.2			
42.984	300.00	0.30030	0.039700	7564.2	8157.6	0.036800	0.30020	0.0100000	3.0000	245.00	7709.5	-0.22664	40.436	0.088211	127.07	127.07	78.452	7709.5			
43.072	300.00	0.29990	0.039900	7516.3	7223.6	0.041600	0.30050	0.0100000	3.0000	246.00	7721.6	-0.22543	40.524	0.17593	121.07	121.07	63.548	7721.6			
43.160	300.00	0.29900	0.038800	7706.2	7491.2	0.039900	0.29890	0.0100000	3.0000	247.00	7728.0	-0.22479	40.612	0.26374	28.515	28.515	22.452	7728.0			
43.247	300.00	0.29960	0.038700	7741.6	7434.2	0.040300	0.29960	0.0100000	3.0000	248.00	7726.1	-0.22498	40.699	0.35149	-59.037	-59.037	-28.599	7726.1			
43.335	300.00	0.30030	0.040800	7360.3	7592.9	0.039300	0.29840	0.0100000	3.0000	249.00	7719.8	-0.22561	40.787	0.43945	-105.36	-105.36	-78.186	7719.8			
43.423	300.00	0.30010	0.038600	7774.6	7500.0	0.040000	0.30000	0.0100000	3.0000	250.00	7699.8	-0.22762	40.875	0.52737	-128.18	-128.18	-107.02	7699.8			
43.511	300.00	0.29930	0.038000	7876.3	8045.6	0.037300	0.30010	0.0100000	3.0000	251.00	7694.9	-0.22811	40.963	0.61499	-126.87	-126.87	-108.29	7694.9			
43.599	300.00	0.29930	0.039400	7596.4	7293.7	0.041200	0.30050	0.0100000	3.0000	252.00	7682.2	-0.22938	41.051	0.70288	-115.66	-115.66	-90.936	7682.2			
43.687	300.00	0.29960	0.038800	7721.6	7842.9	0.038200	0.29960	0.0100000	3.0000	253.00	7672.8	-0.23032	41.139	0.79092	-65.396	-65.396	-61.306	7672.8			
43.775	300.00	0.29890	0.038200	7824.6	7541.6	0.039700	0.29940	0.0100000	3.0000	254.00	7660.0	-0.23161	41.227	0.87874	-18.570	-18.570	-27.300	7660.0			
43.862	300.00	0.29960	0.038400	7802.1	7954.9	0.037700	0.29990	0.0100000	3.0000	255.00	7677.3	-0.22987	41.314	0.96639	19.963	19.963	14.819	7677.3			
43.950	300.00	0.30110	0.038700	7780.4	7705.1	0.039000	0.30050	0.0100000	3.0000	256.00	7671.9	-0.23042	41.402	1.0544	43.163	43.163	72.940	7671.9			
44.038	300.00	0.30080	0.038200	7874.3	7868.8	0.038100	0.29980	0.0100000	3.0000	257.00	7675.7	-0.23004	41.490	1.1421	94.937	94.937	143.51	7675.7			
44.126	300.00	0.29940	0.035000	8554.3	7560.3	0.039800	0.30090	0.0100000	3.0000	258.00	7679.8	-0.22963	41.578	1.2298	225.21	225.21	209.43	7679.8			
44.214	300.00	0.30080	0.040600	7408.9	7472.5	0.040000	0.29890	0.0100000	3.0000	259.00	7715.0	-0.22609	41.666	1.3176	334.30	334.30	273.55	7715.0			
44.301	300.00	0.30050	0.038500	7805.2	7276.7	0.041200	0.29980	0.0100000	3.0000	260.00	7751.0	-0.22248	41.753	1.4054	349.56	349.56	320.20	7751.0			
44.389	300.00	0.29980	0.037200	8059.1	7997.3	0.037500	0.29990	0.0100000	3.0000	261.00	7786.8	-0.21889	41.841	1.4932	363.77	363.77	335.03	7786.8			
44.477	300.00	0.29970	0.038800	7724.2	7954.9	0.037700	0.29990	0.0100000	3.0000	262.00	7797.4	-0.21783	41.929	1.5810	328.14	328.14	318.12	7797.4			
44.565	300.00	0.29980	0.039900	7513.8	7802.6	0.038500	0.30040	0.0100000	3.0000	263.00	7851.5	-0.21240	42.017	1.6688	299.36	299.36	284.27	7851.5			
44.653	300.00	0.29950	0.038800	7719.1	7672.6	0.039100	0.30000	0.0100000	3.0000	264.00	7862.7	-0.21127	42.105	1.7568	249.78	249.78	256.06	7862.7			
44.740	300.00	0.30060	0.039300	7648.9	7834.6	0.038100	0.29850	0.0100000	3.0000	265.00	7885.6	-0.20898	42.192	1.8444	180.31	180.31	239.28	7885.6			
44.828	300.00	0.30030	0.038300	7840.7	8042.8	0.037400	0.30080	0.0100000	3.0000	266.00	7890.0	-0.20854	42.280	1.9324	222.72	222.72	231.87	7890.0			
44.916	300.00	0.30020	0.039100	7677.7	7304.1	0.041100	0.30020	0.0100000	3.0000	267.00	7917.1	-0.20582	42.368	2.0201	244.23	244.23	243.73	7917.1			
45.004	300.00	0.29940	0.038700	7736.4	7577.2	0.039500	0.29930	0.0100000	3.0000	268.00	7944.8	-0.20305	42.456	2.1079	262.29	262.29	280.05	7944.8			
45.092	300.00	0.30120	0.038400	7843.7	8174.4	0.036700	0.30000	0.0100000	3.0000	269.00	7965.4	-0.20097	42.544	2.1957	309.09	309.09	247.22	7965.4			
45.179	300.00	0.30060	0.039400	7629.4	8348.2	0.035900	0.29970	0.0100000	3.0000	270.00	7980.9	-0.19942	42.631	2.2834	361.89	361.89	206.35	7980.9			
45.267	300.00	0.29950	0.035900	8342.6	8252.1	0.036500	0.30120	0.0100000	3.0000	271.00	8034.6	-0.19403	42.719	2.3711	58.594	58.594	160.48	8034.6			
45.355	300.00	0.29960	0.038200	7842.9	8267.2	0.036300	0.30010	0.0100000	40.000	272.00	8068.9	-0.19059	42.807	2.4587	39.857	39.857	104.31	8068.9			
46.676	300.00	0.30070	0.037200	8083.3	8431.4	0.035700	0.30100	0.0100000	40.000	273.00	8085.8	-0.18890	44.128	3.7799	32.961	32.961	37.441	8085.8			
47.997	300.00	0.29940	0.037300	8026.8	8078.2	0.037100	0.29970	0.0100000	40.000	274.00	8132.8	-0.18418	45.449	5.1015	28.261	28.261	31.497	8132.8			
49.319	300.00	0.29960	0.036400	8230.8	8021.3	0.037600	0.30160	0.0100000	40.000	275.00	8185.5	-0.17889	46.771	6.4227	27.534	27.534	30.237	8185.5			
50.640	300.00	0.30050	0.037500	8013.3	8048.4	0.037200	0.29940	0.0100000	40.000	276.00	8205.8	-0.17686	48.092	7.7442	28.872	28.872	30.628	8205.8			
51.962	300.00	0.30000	0.038500	7792.2	8272.7	0.036300	0.30030	0.0100000	40.000	277.00	8231.2	-0.17431	49.414	9.0656	33.558	33.558	30.936	8231.2			
53.283	300.00	0.30090	0.035700	8428.6	8450.4	0.035300	0.29830	0.0100000	40.000	278.00	8300.7	-0.16734	50.735	10.387	34.917	34.917	28.781	8300.7			
54.605	300.00	0.30040	0.037400	8032.1	7994.7	0.037500	0.29980	0.0100000	40.000	279.00	8359.8	-0.16141	52.057	11.709	29.799	29.799	24.819	8359.8			
55.927	300.00	0.29900	0.035200	8494.3	7797.9	0.038600	0.30100	0.0100000	40.000	280.00	8372.2	-0.16017	53.379	13.031	16.760	16.760	18.959	8372.2			
57.248	300.00	0.29990	0.033900	8846.6	8403.4	0.035700	0.30000	0.0100000	40.000	281.00	8392.4	-0.15814	54.700	14.352	9.0631	9.0631	13.145	8392.4			
58.570	300.00	0.29890	0.034800	8589.1	8718.0	0.034400	0.29990	0.0100000	40.000	282.00	8395.2	-0.15787	56.022	15.674	4.2575	4.2575	8.9811	8395.2			
59.891	300.00	0.29930	0.033500	8934.3	8309.4	0.036200	0.30080	0.0100000	40.000	283.00	8408.2	-0.15656	57.343	16.995	5.8428	5.8428	8.4762	8408.2			
61.213	300.00	0.30010	0.034900	8598.9	8789.5	0.034200	0.30060	0.0100000	40.000	284.00	8392.4	-0.15814	58.665	18.317	8.9820	8.9820	10.793	8392.4			
62.534	300.00	0.29940	0.036800	8135.9	8780.1	0.034100	0.29940	0.0100000	40.000	285.00	8432.4	-0.15413	59.986	19.638	14.236	14.236	14.034	8432.4			
63.856	300.00	0.29990	0.037000	8105.4	8259.7	0.036200	0.29900	0.0100000	40.000	286.00	8442.4	-0.15312	61.308	20.960	20.646	20.646	17.138	8442.4			
65.178	300.00	0.29970	0.037900	7907.7	8577.6	0.034800	0.29850	0.0100000	40.000	287.00	8477.3	-0.14963	62.630	22.282	20.462	20.462	19.004	8477.3			
66.499	300.00	0.30010	0.033600	8931.5	8763.2	0.034200	0.29970	0.0100000	40.000	288.00	8506.4	-0.14671	63.951	23.603	21.363	21.363	19.871	8506.4			
67.821	300.00	0.30020	0.035900	8362.1	8818.2	0.034100	0.30070	0.0100000	40.000	289.00	8535.6	-0.14378	65.273	24.925	18.312	18.312	18.797	8535.6			
69.142	300.00	0.30000	0.035200	8522.7	8435.0	0.035400	0.29860	0.0100000	40.000	290.00	8554.4	-0.14189	66.594	26.246	18.572	18.572	17.122	8554.4			
70.464	300.00	0.29850	0.034600	8627.2	8771.9	0.034200	0.30000	0.0100000	40.000	291.00	8574.3	-0.13990	67.916	27.568	15.277	15.277	13.684	8574.3			
71.786	300.00	0.29950	0.034800	8606.3	8310.2	0.036100	0.30000	0.0100000	40.000	292.00	8609.8	-0.13634	69.238	28.890	12.086	12.086	8.9401	8609.8			
73.107	300.00	0.30030	0.033100	9072.5	8541.3	0.035100	0.29980	0.0100000	40.000	293.00	8608.9	-0.13643	70.559	30.211	4.1740	4.1740	4.2989	8608.9			
74.428	300.00	0.30040	0.034600	8682.1	8100.0	0.037000	0.29970	0.0100000	40.000	294.00	8617.0	-0.13561	71.880	31.532	-5.4085	-5.4085	0.16664	8617.0			
75.750	300.00	0.29930	0.034500	8675.4	8916.7	0.033600	0.29960	0.0100000	40.000	295.00	8598.2	-0.13749	73.202	32.854	-4.6343	-4.6343	-2.5813	8598.2			
77.071	300.00	0.30030	0.035100	8555.6	8232.9	0.036500	0.30050	0.0100000	40.000	296.00	8579.4	-0.13939	74.523	34.175	-5.3840	-5.3840	-3.7554	8579.4			
78.393	300.00	0.29860	0.033600	8886.9	8780.1	0.034100	0.29940	0.0100000	40.000	297.00	8597.1	-0.13761	75.845	35.497	-1.6539	-1.6539	-3.3353	8597.1			
79.714	300.00	0.30020	0.033200	9042.2	8884.3	0.033700	0.29940	0.0100000	40.000	298.00	8582.0	-0.13912	77.166	36.818	-1.6962	-1.6962	-1.9156	8582.0			
81.036	300.00	0.29970	0.034400	8712.2	9063.4	0.033100	0.30000	0.0100000	40.000	299.00	8586.0	-0.13872	78.488	38.140	-3.3081	-3.3081	1.0814	8586.0			
82.357	300.00	0.30030	0.033700	8911.0	8390.4	0.035600	0.29870	0.0100000	40.000	300.00	8573.7	-0.13996	79.809	39.461	2.4643	2.4643	4.4110	8573.7			
83.679	300.00	0.30030	0.034400	8729.7	8214.3	0.036400	0.29900	0.0100000	40.000	301.00	8579.4	-0.13939	81.131	40.783	9.6011	9.6011	9.6450	8579.4			
85.000	300.00	0.29960	0.034900	8584.5	9149.4	0.032800	0.30010	0.0100000	40.000	302.00	8601.6	-0.13716	82.452	42.104	14.994	14.994	15.062	8601.6			
86.321	300.00	0.29980	0.032600	9196.3	8698.6	0.034500	0.30010	0.0100000	40.000	303.00	8635.5	-0.13376	83.773	43.425	24.474	24.474	18.978	8635.5			
87.643	300.00	0.30100	0.034000	8852.9	8480.2	0.035400	0.30020	0.0100000	40.000	304.00	8644.7	-0.13283	85.095	44.747	23.779	23.779	20.793	8644.7			
88.965	300.00	0.30060	0.034000	8841.2	8395.5	0.035900	0.30140	0.0100000	40.000	305.00	8719.5	-0.12533	86.417	46.069	22.044	22.044	19.522	8719.5			
90.286	300.00	0.29940	0.032700	9156.0	8383.8	0.035700	0.29930	0.0100000	40.000	306.00	8716.7	-0.12561	87.738	47.390	18.676	18.676	16.140	8716.7			
91.608	300.00	0.29920	0.036200	8265.2	8631.1	0.034700	0.29950	0.0100000	40.000	307.00	8745.1	-0.12276	89.060	48.712	8.6354	8.6354	13.042	8745.1			
92.930	300.00	0.30000	0.034000	8823.5	8261.7	0.036300	0.29990	0.0100000	40.000	308.00	8755.3	-0.12174	90.382	50.034	7.5647	7.5647	11.144	8755.3			
94.251	300.00	0.30000	0.033900	8849.6	8846.6	0.033900	0.29990	0.0100000	40.000	309.00	8757.3	-0.12154	91.703	51.355	8.2905	8.2905	9.7670	8757.3			
95.573	300.00	0.29890	0.032700	9140.7	8560.0	0.035000	0.29960	0.0100000	40.000	310.00	8760.6	-0.12120	93.025	52.677	12.555	12.555	9.4853	8760.6			
96.894	300.00	0.29980	0.033800	8869.8	8554.0	0.035200	0.30110	0.0100000	40.000	311.00	8797.2	-0.11753	94.346	53.998	11.790	11.790	8.7495	8797.2			
98.216	300.00	0.30110	0.034700	8677.2	9239.3	0.032600	0.30120	0.0100000	40.000	312.00	8818.3	-0.11542	95.668	55.320	7.2270	7.2270	8.6175	8818.3			
99.537	300.00	0.30080	0.033500	8979.1	9021.1	0.033200	0.29950	0.0100000	40.000	313.00	8806.4	-0.11662	96.989	56.641	3.8858	3.8858	10.347	8806.4			
100.86	300.00	0.30070	0.033200	9057.2	8735.5	0.034400	0.30050	0.0100000	40.000	314.00	8803.8	-0.11687	98.311	57.963	7.6306	7.6306	13.831	8803.8			
102.18	300.00	0.30030	0.032700	9183.5	9671.0	0.031000	0.29980	0.0100000	40.000	315.00	8830.2	-0.11423	99.632	59.284	21.200	21.200	19.880	8830.2			
103.50	300.00	0.30070	0.033600	8949.4	8858.0	0.033800	0.29940	0.0100000	40.000	316.00	8856.8	-0.11156	100.95	60.606	29.212	29.212	26.267	8856.8			
104.82	300.00	0.29930	0.033400	8961.1	8829.4	0.034000	0.30020	0.0100000	40.000	317.00	8919.9	-0.10522	102.28	61.927	37.473	37.473	30.318	8919.9			
106.14	300.00	0.30020	0.033800	8881.7	8994.0	0.033400	0.30040	0.0100000	40.000	318.00	8952.0	-0.10201	103.60	63.249	35.817	35.817	31.016	8952.0			
107.47	300.00	0.30050	0.033600	8943.5	8925.6	0.033600	0.29990	0.0100000	40.000	319.00	9030.2	-0.094164	104.92	64.571	27.888	27.888	27.288	9030.2			
108.79	300.00	0.30010	0.034600	8673.4	9133.7	0.032900	0.30050	0.0100000	40.000	320.00	9038.4	-0.093345	106.24	65.892	24.689	24.689	20.497	9038.4			
110.11	300.00	0.30060	0.033900	8867.3	9159.5	0.032600	0.29860	0.0100000	40.000	321.00	9061.0	-0.091070	107.56	67.214	10.575	10.575	12.952	9061.0			
111.43	300.00	0.30070	0.033600	8949.4	8656.1	0.034600	0.29950	0.0100000	40.000	322.00	9099.7	-0.087193	108.88	68.535	3.5171	3.5171	5.5201	9099.7			
112.75	300.00	0.29920	0.034300	8723.0	8898.8	0.033600	0.29900	0.0100000	40.000	323.00	9069.4	-0.090230	110.20	69.857	-1.9073	-1.9073	-0.60041	9069.4			
114.07	300.00	0.30120	0.033400	9018.0	8645.5	0.034700	0.30000	0.0100000	40.000	324.00	9057.4	-0.091434	111.53	71.178	-9.2733	-9.2733	-2.8397	9057.4			
115.40	300.00	0.30010	0.032700	9177.4	9033.0	0.033300	0.30080	0.0100000	40.000	325.00	9069.6	-0.090214	112.85	72.499	-5.9135	-5.9135	-3.3597	9069.6			
116.72	300.00	0.30000	0.035000	8571.4	8955.2	0.033500	0.30000	0.0100000	40.000	326.00	9038.3	-0.093347	114.17	73.821	-0.62170	-0.62170	-1.7375	9038.3			
118.04	300.00	0.30070	0.031000	9700.0	9709.7	0.031000	0.30100	0.0100000	40.000	327.00	9039.9	-0.093193	115.49	75.142	0.91716	0.91716	1.1338	9039.9			
119.36	300.00	0.30000	0.034700	8645.5	9303.4	0.032300	0.30050	0.0100000	40.000	328.00	9068.1	-0.090357	116.81	76.464	6.2038	6.2038	3.2309	9068.1			
120.68	300.00	0.30150	0.033100	9108.8	9904.6	0.030400	0.30110	0.0100000	40.000	329.00	9060.7	-0.091101	118.13	77.786	5.0834	5.0834	5.9631	9060.7			
122.00	300.00	0.29910	0.032700	9146.8	9018.0	0.033300	0.30030	0.0100000	40.000	330.00	9068.9	-0.090281	119.45	79.107	4.5719	4.5719	9.1651	9068.9			
123.32	300.00	0.30090	0.035000	8597.1	9036.3	0.033100	0.29910	0.0100000	40.000	331.00	9073.1	-0.089861	120.78	80.429	13.039	13.039	11.381	9073.1			
124.65	300.00	0.30120	0.031500	9561.9	9365.6	0.032000	0.29970	0.0100000	40.000	332.00	9092.2	-0.087946	122.10	81.750	16.927	16.927	13.353	9092.2			
125.97	300.00	0.29910	0.033100	9036.3	8603.4	0.034800	0.29940	0.0100000	40.000	333.00	9135.2	-0.083626	123.42	83.072	17.284	17.284	14.602	9135.2			
127.29	300.00	0.30050	0.032300	9303.4	8769.0	0.034200	0.29990	0.0100000	40.000	334.00	9149.7	-0.082178	124.74	84.394	14.943	14.943	13.056	9149.7			
128.61	300.00	0.30030	0.032300	9297.2	8991.0	0.033400	0.30030	0.0100000	40.000	335.00	9158.5	-0.081288	126.06	85.715	10.817	10.817	9.9170	9158.5			
129.93	300.00	0.29940	0.034800	8603.4	9015.0	0.033300	0.30020	0.0100000	40.000	336.00	9179.3	-0.079209	127.38	87.037	5.3087	5.3087	4.8879	9179.3			
131.25	300.00	0.30010	0.032600	9205.5	8890.2	0.033700	0.29960	0.0100000	40.000	337.00	9191.9	-0.077940	128.71	88.359	1.2320	1.2320	0.69379	9191.9			
132.58	300.00	0.29950	0.033600	8913.7	9423.2	0.031900	0.30060	0.0100000	40.000	338.00	9168.1	-0.080333	130.03	89.680	-7.8613	-7.8613	-1.3935	9168.1			
133.78	300.00	0.30050	0.035300	8512.7	8838.2	0.034000	0.30050	0.0100000	40.000	339.00	9171.9	-0.079947	131.23	90.885	-6.0274	-6.0274	-2.2574	9171.9			
135.10	300.00	0.30030	0.033800	8884.6	9097.3	0.032900	0.29930	0.0100000	40.000	340.00	9138.7	-0.083274	132.55	92.206	0.38067	0.38067	-1.7664	9138.7			
136.42	300.00	0.30120	0.033600	8964.3	9221.5	0.032500	0.29970	0.0100000	40.000	341.00	9167.7	-0.080365	133.88	93.528	0.98922	0.98922	-0.25768	9167.7			
137.75	300.00	0.29990	0.033000	9087.9	9560.5	0.031400	0.30020	0.0100000	40.000	342.00	9172.4	-0.079900	135.20	94.849	3.6867	3.6867	1.3916	9172.4			
139.07	300.00	0.30000	0.032100	9345.8	9560.5	0.031400	0.30020	0.0100000	40.000	343.00	9161.6	-0.080978	136.52	96.171	-0.31758	-0.31758	2.7796	9161.6			
140.39	300.00	0.29990	0.032600	9199.4	9201.8	0.032700	0.30090	0.0100000	40.000	344.00	9166.2	-0.080524	137.84	97.492	2.2189	2.2189	4.3022	9166.2			
141.71	300.00	0.30020	0.033000	9097.0	8831.9	0.033900	0.29940	0.0100000	40.000	345.00	9168.8	-0.080264	139.16	98.814	7.3205	7.3205	4.5375	9168.8			
143.03	300.00	0.30060	0.032900	9136.8	9468.4	0.031600	0.29920	0.0100000	40.000	346.00	9183.5	-0.078786	140.48	100.14	8.6023	8.6023	4.7671	9183.5			
144.35	300.00	0.30070	0.031400	9576.4	9220.9	0.032600	0.30060	0.0100000	40.000	347.00	9201.3	-0.076995	141.80	101.46	4.8634	4.8634	4.4915	9201.3			
145.67	300.00	0.30100	0.033600	8958.3	9208.6	0.032600	0.30020	0.0100000	40.000	348.00	9206.7	-0.076456	143.13	102.78	0.83029	0.83029	3.8109	9206.7			
147.00	300.00	0.30040	0.031900	9416.9	9384.4	0.032000	0.30030	0.0100000	40.000	349.00	9189.3	-0.078205	144.45	104.10	0.84106	0.84106	3.4817	9189.3			
148.32	300.00	0.29960	0.031700	9451.1	9208.0	0.032700	0.30110	0.0100000	40.000	350.00	9195.0	-0.077631	145.77	105.42	3.9177	3.9177	2.4346	9195.0			
149.64	300.00	0.29970	0.032300	9278.6	9627.0	0.031100	0.29940	0.0100000	40.000	351.00	9212.8	-0.075850	147.09	106.74	6.9563	6.9563	0.97152	9212.8			
150.96	300.00	0.29870	0.034000	8785.3	9133.7	0.032900	0.30050	0.0100000	40.000	352.00	9220.9	-0.075037	148.41	108.06	-0.37231	-0.37231	0.053149	9220.9			
152.28	300.00	0.29980	0.033100	9057.4	9139.8	0.032900	0.30070	0.0100000	40.000	353.00	9222.3	-0.074891	149.73	109.39	-6.4851	-6.4851	-0.88028	9222.3			
153.60	300.00	0.30010	0.033100	9066.5	8698.6	0.034500	0.30010	0.0100000	40.000	354.00	9187.8	-0.078357	151.06	110.71	-3.7508	-3.7508	-1.1535	9187.8			
154.93	300.00	0.30050	0.032500	9246.2	8823.5	0.034000	0.30000	0.0100000	40.000	355.00	9186.5	-0.078489	152.38	112.03	-0.74950	-0.74950	0.75512	9186.5			
156.25	300.00	0.30000	0.031600	9493.7	9300.3	0.032300	0.30040	0.0100000	40.000	356.00	9214.0	-0.075724	153.70	113.35	5.5902	5.5902	3.1053	9214.0			
157.57	300.00	0.29940	0.030800	9720.8	9389.9	0.031800	0.29860	0.0100000	40.000	357.00	9204.2	-0.076704	155.02	114.67	9.1708	9.1708	5.1709	9204.2			
158.89	300.00	0.29990	0.032400	9256.2	9003.0	0.033400	0.30070	0.0100000	40.000	358.00	9215.8	-0.075544	156.34	115.99	5.2656	5.2656	4.7262	9215.8			
160.21	300.00	0.30070	0.033400	9003.0	9057.2	0.033200	0.30070	0.0100000	40.000	359.00	9246.2	-0.072500	157.66	117.32	6.5775	6.5775	2.5993	9246.2			
161.53	300.00	0.30000	0.033200	9036.1	8958.3	0.033600	0.30100	0.0100000	40.000	360.00	9227.9	-0.074336	158.99	118.64	-2.9733	-2.9733	0.62795	9227.9			
162.85	300.00	0.29980	0.035200	8517.0	9470.0	0.031700	0.30020	0.0100000	40.000	361.00	9241.7	-0.072949	160.31	119.96	-5.0442	-5.0442	0.87211	9241.7			
164.18	300.00	0.30050	0.030400	9884.9	9391.8	0.031900	0.29960	0.0100000	40.000	362.00	9198.4	-0.077291	161.63	121.28	-0.68587	-0.68587	3.6803	9198.4			
165.50	300.00	0.30030	0.031800	9443.4	9591.1	0.031300	0.30020	0.0100000	40.000	363.00	9227.6	-0.074366	162.95	122.60	6.4864	6.4864	9.2154	9227.6			
166.82	300.00	0.30020	0.031000	9683.9	8834.8	0.033900	0.29950	0.0100000	40.000	364.00	9230.4	-0.074082	164.27	123.92	20.618	20.618	15.229	9230.4			
168.14	300.00	0.30010	0.034300	8749.3	9174.3	0.032700	0.30000	0.0100000	40.000	365.00	9268.6	-0.070253	165.59	125.25	24.702	24.702	18.745	9268.6			
169.46	300.00	0.29970	0.032200	9307.5	9410.7	0.031900	0.30020	0.0100000	40.000	366.00	9314.1	-0.065680	166.92	126.57	25.025	25.025	18.630	9314.1			
170.78	300.00	0.29940	0.032700	9156.0	9263.2	0.032300	0.29920	0.0100000	40.000	367.00	9348.9	-0.062193	168.24	127.89	16.894	16.894	15.155	9348.9			
172.11	300.00	0.30060	0.033300	9027.0	9463.7	0.031700	0.30000	0.0100000	40.000	368.00	9355.6	-0.061523	169.56	129.21	5.9097	5.9097	11.054	9355.6			
173.43	300.00	0.29910	0.031600	9465.2	9845.9	0.030500	0.30030	0.0100000	40.000	369.00	9359.5	-0.061133	170.88	130.53	3.2427	3.2427	7.0450	9359.5			
174.75	300.00	0.29910	0.031400	9525.5	9000.0	0.033400	0.30060	0.0100000	40.000	370.00	9347.9	-0.062292	172.20	131.85	4.1975	4.1975	4.6301	9347.9			
176.07	300.00	0.30100	0.032400	9290.1	9498.4	0.031500	0.29920	0.0100000	40.000	371.00	9374.2	-0.059659	173.52	133.18	4.9813	4.9813	5.4539	9374.2			
177.39	300.00	0.30010	0.031700	9466.9	8718.0	0.034400	0.29990	0.0100000	40.000	372.00	9376.0	-0.059478	174.84	134.50	4.8190	4.8190	7.0988	9376.0			
178.71	300.00	0.30070	0.033500	8976.1	9745.9	0.030700	0.29920	0.0100000	40.000	373.00	9378.4	-0.059238	176.17	135.82	10.029	10.029	7.8397	9378.4			
180.04	300.00	0.30050	0.033000	9106.1	9199.4	0.032600	0.29990	0.0100000	40.000	374.00	9377.7	-0.059308	177.49	137.14	11.467	11.467	6.9385	9377.7			
181.36	300.00	0.30000	0.031500	9523.8	9500.0	0.031600	0.30020	0.0100000	40.000	375.00	9439.6	-0.053097	178.81	138.46	7.9021	7.9021	3.6931	9439.6			
182.68	300.00	0.30090	0.033700	8928.8	9781.0	0.030600	0.29930	0.0100000	40.000	376.00	9421.1	-0.054949	180.13	139.78	0.47521	0.47521	-0.57426	9421.1			
184.00	300.00	0.29920	0.030700	9745.9	10030	0.029800	0.29890	0.0100000	40.000	377.00	9408.8	-0.056180	181.45	141.10	-11.408	-11.408	-4.5786	9408.8			
185.32	300.00	0.30020	0.030800	9746.8	9530.2	0.031500	0.30020	0.0100000	40.000	378.00	9396.2	-0.057452	182.77	142.43	-11.308	-11.308	-6.8509	9396.2			
186.64	300.00	0.29990	0.032700	9171.3	9084.6	0.033100	0.30070	0.0100000	40.000	379.00	9376.7	-0.059407	184.10	143.75	-8.5547	-8.5547	-5.2448	9376.7			
187.96	300.00	0.30050	0.034700	8659.9	8814.7	0.034000	0.29970	0.0100000	40.000	380.00	9362.5	-0.060831	185.42	145.07	-3.4595	-3.4595	0.45926	9362.5			
189.29	300.00	0.30030	0.031800	9443.4	9509.5	0.031600	0.30050	0.0100000	40.000	381.00	9369.2	-0.060161	186.74	146.39	8.5059	8.5059	7.5285	9369.2			
190.61	300.00	0.30030	0.030400	9878.3	9507.9	0.031500	0.29950	0.0100000	40.000	382.00	9377.1	-0.059368	188.06	147.71	17.112	17.112	13.531	9377.1			
191.93	300.00	0.29960	0.030400	9855.3	9442.0	0.031900	0.30120	0.0100000	40.000	383.00	9425.6	-0.054500	189.38	149.03	24.039	24.039	15.937	9425.6			
193.25	300.00	0.29960	0.032900	9106.4	9576.4	0.031400	0.30070	0.0100000	40.000	384.00	9447.3	-0.052319	190.70	150.36	21.459	21.459	13.273	9447.3			
194.57	300.00	0.30020	0.032100	9352.0	10135	0.029600	0.30000	0.0100000	40.000	385.00	9492.9	-0.047752	192.02	151.68	8.5685	8.5685	7.9646	9492.9			
195.89	300.00	0.30000	0.031700	9463.7	8786.5	0.034200	0.30050	0.0100000	40.000	386.00	9485.2	-0.048518	193.35	153.00	-4.8145	-4.8145	3.2068	9485.2			
197.22	300.00	0.29970	0.033900	8840.7	9152.9	0.032700	0.29930	0.0100000	40.000	387.00	9463.3	-0.050721	194.67	154.32	-9.4285	-9.4285	1.1362	9463.3			
198.54	300.00	0.29920	0.031900	9379.3	8997.0	0.033300	0.29960	0.0100000	40.000	388.00	9430.3	-0.054025	195.99	155.64	0.24985	0.24985	3.2620	9430.3			
199.86	300.00	0.29940	0.032100	9327.1	9054.4	0.033100	0.29970	0.0100000	40.000	389.00	9458.0	-0.051248	197.31	156.96	11.106	11.106	6.9171	9458.0			
201.18	300.00	0.29980	0.032400	9253.1	9547.8	0.031400	0.29980	0.0100000	40.000	390.00	9489.5	-0.048089	198.63	158.28	19.198	19.198	10.397	9489.5			
202.50	300.00	0.30030	0.033800	8884.6	9140.2	0.032800	0.29980	0.0100000	40.000	391.00	9507.1	-0.046328	199.95	159.61	13.461	13.461	11.430	9507.1			
203.82	300.00	0.29960	0.031200	9602.6	9664.5	0.031000	0.29960	0.0100000	40.000	392.00	9532.7	-0.043760	201.28	160.93	7.9728	7.9728	7.8695	9532.7			
205.15	300.00	0.30120	0.033200	9072.3	9737.0	0.030800	0.29990	0.0100000	40.000	393.00	9525.4	-0.044490	202.60	162.25	5.4130	5.4130	2.8719	9525.4			
206.47	300.00	0.30020	0.032400	9265.4	10203	0.029600	0.30200	0.0100000	40.000	394.00	9533.0	-0.043723	203.92	163.57	-6.6965	-6.6965	0.036877	9533.0			
207.79	300.00	0.29940	0.030700	9752.4	10155	0.029600	0.30060	0.0100000	40.000	395.00	9542.7	-0.042758	205.24	164.89	-5.7906	-5.7906	1.3881	9542.7			
209.11	300.00	0.29970	0.032900	9109.4	9339.6	0.032100	0.29980	0.0100000	40.000	396.00	9479.8	-0.049065	206.56	166.21	-0.71431	-0.71431	6.6833	9479.8			
210.43	300.00	0.29940	0.031400	9535.0	9319.9	0.032200	0.30010	0.0100000	40.000	397.00	9513.7	-0.045657	207.88	167.54	14.729	14.729	13.756	9513.7			
211.75	300.00	0.29960	0.030800	9727.3	9338.5	0.032200	0.30070	0.0100000	40.000	398.00	9542.8	-0.042747	209.21	168.86	31.889	31.889	19.339	9542.8			
213.08	300.00	0.30030	0.033800	8884.6	10111	0.029600	0.29930	0.0100000	40.000	399.00	9608.5	-0.036154	210.53	170.18	28.665	28.665	20.031	9608.5			
214.40	300.00	0.30030	0.032400	9268.5	9745.9	0.030700	0.29920	0.0100000	40.000	400.00	9643.1	-0.032680	211.85	171.50	22.128	22.128	15.997	9643.1			
215.72	300.00	0.30150	0.032500	9276.9	9183.5	0.032700	0.30030	0.0100000	40.000	401.00	9653.0	-0.031690	213.17	172.82	2.7461	2.7461	7.4535	9653.0			
217.04	300.00	0.29980	0.031300	9578.3	10047	0.029800	0.29940	0.0100000	40.000	402.00	9666.7	-0.030311	214.49	174.14	-5.4430	-5.4430	-1.8075	9666.7			
218.36	300.00	0.29950	0.028900	10363	9355.1	0.032100	0.30030	0.0100000	40.000	403.00	9614.8	-0.035519	215.81	175.47	-10.828	-10.828	-8.1339	9614.8			
219.68	300.00	0.29980	0.029500	10163	9602.6	0.031200	0.29960	0.0100000	40.000	404.00	9626.2	-0.034373	217.14	176.79	-17.640	-17.640	-9.4333	9626.2			
221.00	300.00	0.29960	0.030200	9920.5	9778.5	0.030700	0.30020	0.0100000	40.000	405.00	9601.7	-0.036836	218.46	178.11	-9.5045	-9.5045	-6.7293	9601.7			
222.33	300.00	0.30080	0.030300	9927.4	8814.7	0.034000	0.29970	0.0100000	40.000	406.00	9556.7	-0.041344	219.78	179.43	-3.7507	-3.7507	-3.2010	9556.7			
223.65	300.00	0.30060	0.033200	9054.2	9500.0	0.031600	0.30020	0.0100000	40.000	407.00	9586.8	-0.038333	221.10	180.75	8.0768	8.0768	0.085733	9586.8			
224.97	300.00	0.30000	0.032000	9375.0	9762.2	0.030700	0.29970	0.0100000	40.000	408.00	9608.9	-0.036111	222.42	182.07	6.8133	6.8133	2.4781	9608.9			
226.29	300.00	0.29940	0.031900	9385.6	10377	0.028900	0.29990	0.0100000	40.000	409.00	9629.0	-0.034099	223.74	183.40	-1.2062	-1.2062	4.4176	9629.0			
227.61	300.00	0.29970	0.030300	9891.1	9781.8	0.030700	0.30030	0.0100000	40.000	410.00	9580.7	-0.038945	225.06	184.72	2.4571	2.4571	5.5012	9580.7			
228.93	300.00	0.29960	0.032000	9362.5	9754.9	0.030600	0.29850	0.0100000	40.000	411.00	9592.9	-0.037715	226.39	186.04	5.9468	5.9468	6.1689	9592.9			
230.26	300.00	0.29840	0.032300	9238.4	9429.0	0.031700	0.29890	0.0100000	40.000	412.00	9643.2	-0.032674	227.71	187.36	13.495	13.495	6.2914	9643.2			
231.58	300.00	0.29990	0.033300	9006.0	8574.3	0.035000	0.30010	0.0100000	40.000	413.00	9637.0	-0.033293	229.03	188.68	10.151	10.151	6.4495	9637.0			
232.90	300.00	0.29940	0.032100	9327.1	9976.7	0.030100	0.30030	0.0100000	40.000	414.00	9647.8	-0.032211	230.35	190.00	-0.59344	-0.59344	6.7059	9647.8			
234.22	300.00	0.29970	0.033000	9081.8	9687.1	0.031000	0.30030	0.0100000	40.000	415.00	9657.7	-0.031218	231.67	191.32	3.2475	3.2475	5.9119	9657.7			
235.54	300.00	0.30070	0.031200	9637.8	9211.7	0.032600	0.30030	0.0100000	40.000	416.00	9628.9	-0.034104	232.99	192.65	7.2291	7.2291	5.6505	9628.9			
236.86	300.00	0.29970	0.029500	10159	9970.0	0.030000	0.29910	0.0100000	40.000	417.00	9667.9	-0.030193	234.32	193.97	9.5251	9.5251	6.5406	9667.9			
238.19	300.00	0.29900	0.029200	10240	9785.0	0.030700	0.30040	0.0100000	40.000	418.00	9690.4	-0.027932	235.64	195.29	8.8444	8.8444	6.2924	9690.4			
239.51	300.00	0.29860	0.030500	9790.2	9759.7	0.030800	0.30060	0.0100000	40.000	419.00	9689.9	-0.027990	236.96	196.61	3.8570	3.8570	6.4077	9689.9			
240.83	300.00	0.29960	0.031600	9481.0	9097.0	0.033000	0.30020	0.0100000	40.000	420.00	9676.4	-0.029343	238.28	197.93	2.0062	2.0062	8.3279	9676.4			
242.15	300.00	0.30030	0.031100	9655.9	10003	0.030000	0.30010	0.0100000	40.000	421.00	9700.4	-0.026931	239.60	199.25	7.8060	7.8060	9.9554	9700.4			
243.47	300.00	0.29990	0.028900	10377	10239	0.029300	0.30000	0.0100000	40.000	422.00	9698.4	-0.027132	240.92	200.58	19.126	19.126	12.453	9698.4			
244.79	300.00	0.29860	0.030400	9822.4	9917.5	0.030300	0.30050	0.0100000	40.000	423.00	9730.4	-0.023922	242.25	201.90	16.982	16.982	14.852	9730.4			
246.11	300.00	0.30030	0.028800	10427	9581.5	0.031300	0.29990	0.0100000	40.000	424.00	9787.8	-0.018170	243.57	203.22	16.345	16.345	15.403	9787.8			
247.44	300.00	0.29940	0.029700	10081	9810.5	0.030600	0.30020	0.0100000	40.000	425.00	9768.0	-0.020156	244.89	204.54	14.001	14.001	13.810	9768.0			
248.76	300.00	0.30090	0.031500	9552.4	9174.3	0.032700	0.30000	0.0100000	40.000	426.00	9787.7	-0.018181	246.21	205.86	10.563	10.563	10.673	9787.7			
250.08	300.00	0.30020	0.031100	9652.7	9633.4	0.031100	0.29960	0.0100000	40.000	427.00	9823.0	-0.014636	247.53	207.18	11.160	11.160	6.9692	9823.0			
251.40	300.00	0.30040	0.032700	9186.5	9973.4	0.030100	0.30020	0.0100000	40.000	428.00	9830.1	-0.013928	248.85	208.51	1.2948	1.2948	3.4269	9830.1			
252.72	300.00	0.30090	0.031300	9613.4	9750.0	0.030800	0.30030	0.0100000	40.000	429.00	9820.5	-0.014885	250.17	209.83	-2.1719	-2.1719	-0.26658	9820.5			
254.04	300.00	0.30110	0.031800	9468.6	10094	0.029800	0.30080	0.0100000	40.000	430.00	9797.5	-0.017198	251.50	211.15	-3.7111	-3.7111	-4.7982	9797.5			
255.37	300.00	0.30090	0.030400	9898.0	10287	0.029300	0.30140	0.0100000	40.000	431.00	9824.9	-0.014441	252.82	212.47	-7.9046	-7.9046	-7.6656	9824.9			
256.69	300.00	0.30130	0.031300	9626.2	9712.9	0.031000	0.30110	0.0100000	40.000	432.00	9803.3	-0.016610	254.14	213.79	-11.498	-11.498	-9.1873	9803.3			
258.01	300.00	0.29990	0.029200	10271	10101	0.029700	0.30000	0.0100000	40.000	433.00	9765.4	-0.020418	255.46	215.11	-13.042	-13.042	-8.6058	9765.4			
259.33	300.00	0.30060	0.033100	9081.6	9778.5	0.030700	0.30020	0.0100000	40.000	434.00	9751.3	-0.021831	256.78	216.43	-9.7803	-9.7803	-6.7534	9751.3			
260.65	300.00	0.29990	0.030400	9865.1	9560.9	0.031200	0.29830	0.0100000	40.000	435.00	9764.8	-0.020476	258.10	217.76	-0.80358	-0.80358	-4.2195	9764.8			
261.97	300.00	0.30040	0.030700	9785.0	10101	0.029800	0.30100	0.0100000	40.000	436.00	9739.0	-0.023065	259.43	219.08	1.3576	1.3576	-1.5389	9739.0			
263.30	300.00	0.30010	0.028800	10420	9953.6	0.030200	0.30060	0.0100000	40.000	437.00	9766.2	-0.020334	260.75	220.40	1.1709	1.1709	-0.032451	9766.2			
264.62	300.00	0.30060	0.031300	9603.8	10118	0.029600	0.29950	0.0100000	40.000	438.00	9759.5	-0.021002	262.07	221.72	0.36093	0.36093	-1.1325	9759.5			
265.94	300.00	0.30050	0.029100	10326	9584.7	0.031300	0.30000	0.0100000	40.000	439.00	9762.2	-0.020731	263.39	223.04	-2.2481	-2.2481	-3.3749	9762.2			
267.26	300.00	0.29880	0.031100	9607.7	9275.5	0.032300	0.29960	0.0100000	40.000	440.00	9743.3	-0.022627	264.71	224.36	-6.3037	-6.3037	-5.2723	9743.3			
268.58	300.00	0.29960	0.033500	8943.3	9674.2	0.031000	0.29990	0.0100000	40.000	441.00	9759.4	-0.021012	266.03	225.69	-9.8547	-9.8547	-7.2358	9759.4			
269.90	300.00	0.30000	0.029100	10309	9549.2	0.031500	0.30080	0.0100000	40.000	442.00	9719.3	-0.025040	267.36	227.01	-8.3157	-8.3157	-7.5327	9719.3			
271.23	300.00	0.30060	0.028800	10438	9441.6	0.031700	0.29930	0.0100000	40.000	443.00	9709.1	-0.026057	268.68	228.33	-9.4567	-9.4567	-8.6607	9709.1			
272.55	300.00	0.30020	0.031400	9560.5	9621.8	0.031200	0.30020	0.0100000	40.000	444.00	9713.5	-0.025617	270.00	229.65	-3.7325	-3.7325	-9.1210	9713.5			
273.87	300.00	0.29890	0.031100	9610.9	9865.1	0.030400	0.29990	0.0100000	40.000	445.00	9699.8	-0.026992	271.32	230.97	-11.944	-11.944	-8.3604	9699.8			
275.19	300.00	0.30030	0.029500	10180	9268.5	0.032400	0.30030	0.0100000	40.000	446.00	9699.3	-0.027047	272.64	232.29	-12.156	-12.156	-5.8620	9699.3			
276.51	300.00	0.30100	0.029500	10203	9745.9	0.030700	0.29920	0.0100000	40.000	447.00	9637.3	-0.033260	273.96	233.62	-4.5127	-4.5127	-2.4009	9637.3			
277.83	300.00	0.30060	0.029800	10087	9493.7	0.031600	0.30000	0.0100000	40.000	448.00	9664.4	-0.030541	275.29	234.94	3.0355	3.0355	2.1829	9664.4			
279.15	300.00	0.30020	0.031000	9683.9	10030	0.029900	0.29990	0.0100000	40.000	449.00	9687.4	-0.028236	276.61	236.26	13.573	13.573	7.2650	9687.4			
280.48	300.00	0.30050	0.032600	9217.8	9353.1	0.032000	0.29930	0.0100000	40.000	450.00	9694.3	-0.027547	277.93	237.58	10.975	10.975	10.570	9694.3			
281.80	300.00	0.30050	0.029300	10256	10432	0.028700	0.29940	0.0100000	40.000	451.00	9712.1	-0.025760	279.25	238.90	13.254	13.254	11.268	9712.1			
283.12	300.00	0.29870	0.031200	9573.7	9443.4	0.031800	0.30030	0.0100000	40.000	452.00	9724.6	-0.024504	280.57	240.22	12.011	12.011	8.7963	9724.6			
284.44	300.00	0.29950	0.033400	8967.1	9500.0	0.031600	0.30020	0.0100000	40.000	453.00	9759.8	-0.020972	281.89	241.54	6.5254	6.5254	6.4990	9759.8			
285.76	300.00	0.29950	0.031200	9599.4	10193	0.029500	0.30070	0.0100000	40.000	454.00	9749.8	-0.021980	283.21	242.87	1.2154	1.2154	4.0823	9749.8			
287.08	300.00	0.30170	0.031700	9517.3	9490.5	0.031600	0.29990	0.0100000	40.000	455.00	9742.6	-0.022697	284.54	244.19	-0.51146	-0.51146	2.3631	9742.6			
288.41	300.00	0.29960	0.030900	9695.8	9549.5	0.031300	0.29890	0.0100000	40.000	456.00	9741.2	-0.022836	285.86	245.51	1.1711	1.1711	1.0916	9741.2			
289.73	300.00	0.29950	0.030400	9852.0	8800.0	0.034000	0.29920	0.0100000	40.000	457.00	9760.7	-0.020883	287.18	246.83	3.4150	3.4150	0.086564	9760.7			
291.05	300.00	0.30110	0.032000	9409.4	10523	0.028500	0.29990	0.0100000	40.000	458.00	9748.5	-0.022110	288.50	248.15	0.16791	0.16791	-1.9290	9748.5			
292.37	300.00	0.30030	0.030500	9845.9	10601	0.028300	0.30000	0.0100000	40.000	459.00	9761.6	-0.020797	289.82	249.47	-3.8097	-3.8097	-4.8328	9761.6			
293.69	300.00	0.30020	0.032400	9265.4	9729.0	0.031000	0.30160	0.0100000	40.000	460.00	9741.9	-0.022768	291.14	250.80	-10.589	-10.589	-7.3006	9741.9			
295.01	300.00	0.30070	0.031700	9485.8	9649.5	0.031100	0.30010	0.0100000	40.000	461.00	9738.8	-0.023080	292.47	252.12	-13.348	-13.348	-9.2455	9738.8			
296.34	300.00	0.30160	0.032100	9395.6	9937.1	0.030200	0.30010	0.0100000	40.000	462.00	9689.9	-0.027988	293.79	253.44	-8.9241	-8.9241	-9.0326	9689.9			
297.66	300.00	0.30080	0.032300	9312.7	10289	0.029100	0.29940	0.0100000	40.000	463.00	9699.4	-0.027035	295.11	254.76	-9.5567	-9.5567	-7.0811	9699.4			
298.98	300.00	0.30060	0.029000	10366	9230.8	0.032500	0.30000	0.0100000	40.000	464.00	9702.7	-0.026706	296.43	256.08	-2.7452	-2.7452	-0.86778	9702.7			
300.30	300.00	0.30010	0.030700	9775.2	9471.5	0.031600	0.29930	0.0100000	40.000	465.00	9669.3	-0.030056	297.75	257.40	-0.83151	-0.83151	5.5852	9669.3			
301.62	300.00	0.29980	0.032000	9368.8	9836.1	0.030500	0.30000	0.0100000	40.000	466.00	9686.8	-0.028298	299.07	258.73	17.719	17.719	10.101	9686.8			
302.94	300.00	0.30070	0.031300	9607.0	9677.4	0.031000	0.30000	0.0100000	40.000	467.00	9701.8	-0.026790	300.40	260.05	23.341	23.341	11.485	9701.8			
304.26	300.00	0.30100	0.030300	9934.0	9489.0	0.031700	0.30080	0.0100000	40.000	468.00	9803.5	-0.016595	301.72	261.37	13.025	13.025	11.007	9803.5			
305.59	300.00	0.29950	0.031800	9418.2	9768.7	0.030700	0.29990	0.0100000	40.000	469.00	9765.2	-0.020437	303.04	262.69	4.1736	4.1736	9.1029	9765.2			
306.91	300.00	0.29950	0.029400	10187	9617.4	0.031100	0.29910	0.0100000	40.000	470.00	9741.2	-0.022840	304.36	264.01	-3.2203	-3.2203	5.0592	9741.2			
308.23	300.00	0.29990	0.029000	10341	9287.9	0.032300	0.30000	0.0100000	40.000	471.00	9760.5	-0.020900	305.68	265.33	8.1954	8.1954	2.7054	9760.5			
309.55	300.00	0.30000	0.029100	10309	9404.4	0.031900	0.30000	0.0100000	40.000	472.00	9784.5	-0.018498	307.00	266.65	3.1224	3.1224	1.6038	9784.5			
310.87	300.00	0.29920	0.031100	9620.6	9643.1	0.031100	0.29990	0.0100000	40.000	473.00	9797.7	-0.017177	308.32	267.98	1.2560	1.2560	2.0572	9797.7			
312.19	300.00	0.30000	0.028600	10490	9568.7	0.031300	0.29950	0.0100000	40.000	474.00	9743.3	-0.022634	309.64	269.30	-1.3345	-1.3345	1.6751	9743.3			
313.51	300.00	0.30110	0.029900	10070	9492.1	0.031500	0.29900	0.0100000	40.000	475.00	9789.5	-0.018000	310.97	270.62	-0.95315	-0.95315	2.0688	9789.5			
314.83	300.00	0.30030	0.029300	10249	9858.6	0.030400	0.29970	0.0100000	40.000	476.00	9779.8	-0.018970	312.29	271.94	6.2847	6.2847	3.6425	9779.8			
316.16	300.00	0.29910	0.031200	9586.5	9865.1	0.030400	0.29990	0.0100000	40.000	477.00	9773.1	-0.019640	313.61	273.26	5.0910	5.0910	5.9050	9773.1			
317.48	300.00	0.30060	0.030300	9920.8	10934	0.027400	0.29960	0.0100000	40.000	478.00	9793.0	-0.017649	314.93	274.58	9.1245	9.1245	7.3180	9793.0			
318.80	300.00	0.30090	0.030300	9930.7	9718.4	0.030900	0.30030	0.0100000	40.000	479.00	9816.5	-0.015287	316.25	275.90	9.9778	9.9778	8.0241	9816.5			
320.12	300.00	0.29990	0.030000	9996.7	10098	0.029700	0.29990	0.0100000	40.000	480.00	9818.4	-0.015101	317.57	277.22	6.1123	6.1123	11.219	9818.4			
321.44	300.00	0.30050	0.031100	9662.4	10135	0.029600	0.30000	0.0100000	40.000	481.00	9826.3	-0.014303	318.89	278.54	9.8151	9.8151	14.651	9826.3			
322.76	300.00	0.30050	0.032300	9303.4	10153	0.029500	0.29950	0.0100000	40.000	482.00	9828.4	-0.014091	320.21	279.86	21.068	21.068	18.122	9828.4			
324.08	300.00	0.29970	0.029500	10159	10214	0.029500	0.30130	0.0100000	40.000	483.00	9876.3	-0.0092891	321.53	281.19	26.284	26.284	20.023	9876.3			
325.40	300.00	0.30050	0.032100	9361.4	9146.3	0.032800	0.30000	0.0100000	40.000	484.00	9932.5	-0.0036494	322.85	282.51	27.332	27.332	18.501	9932.5			
326.72	300.00	0.30070	0.032500	9252.3	10201	0.029400	0.29990	0.0100000	40.000	485.00	9947.9	-0.0021094	324.18	283.83	15.617	15.617	11.838	9947.9			
328.05	300.00	0.29880	0.028100	10633	9268.5	0.032400	0.30030	0.0100000	40.000	486.00	9973.2	0.00042872	325.50	285.15	2.2033	2.2033	4.5429	9973.2			
329.37	300.00	0.30030	0.031200	9625.0	9695.8	0.030900	0.29960	0.0100000	40.000	487.00	9959.1	-0.00097977	326.82	286.47	-12.249	-12.249	-1.1837	9959.1			
330.69	300.00	0.30100	0.030000	10033	10094	0.029700	0.29980	0.0100000	40.000	488.00	9941.4	-0.0027541	328.14	287.79	-10.189	-10.189	-3.1047	9941.4			
332.01	300.00	0.30020	0.030200	9940.4	9983.3	0.030000	0.29950	0.0100000	40.000	489.00	9882.8	-0.0086347	329.46	289.11	-1.3008	-1.3008	-1.9468	9882.8			
333.33	300.00	0.30000	0.032200	9316.8	9807.8	0.030700	0.30110	0.0100000	40.000	490.00	9944.0	-0.0024955	330.78	290.43	6.0119	6.0119	-0.95547	9944.0			
334.65	300.00	0.30050	0.031100	9662.4	9784.3	0.030600	0.29940	0.0100000	40.000	491.00	9949.3	-0.0019708	332.10	291.76	7.9927	7.9927	-0.60336	9949.3			
335.97	300.00	0.30070	0.030000	10023	9332.3	0.032200	0.30050	0.0100000	40.000	492.00	9947.9	-0.0021017	333.42	293.08	-7.2920	-7.2920	-2.5570	9947.9			
337.29	300.00	0.29990	0.031900	9401.3	10410	0.028800	0.29980	0.0100000	40.000	493.00	9933.7	-0.0035352	334.75	294.40	-8.4286	-8.4286	-4.5629	9933.7			
338.61	300.00	0.29930	0.032400	9237.7	10824	0.027800	0.30090	0.0100000	40.000	494.00	9903.6	-0.0065456	336.07	295.72	-11.069	-11.069	-5.1417	9903.6			
339.94	300.00	0.29940	0.030600	9784.3	9891.1	0.030300	0.29970	0.0100000	40.000	495.00	9915.7	-0.0053339	337.39	297.04	-4.0175	-4.0175	-2.2192	9915.7			
341.26	300.00	0.29910	0.028900	10349	10023	0.029900	0.29970	0.0100000	40.000	496.00	9883.8	-0.0085369	338.71	298.36	5.0988	5.0988	1.2804	9883.8			
342.58	300.00	0.30100	0.030900	9741.1	9563.7	0.031400	0.30030	0.0100000	40.000	497.00	9917.0	-0.0052014	340.03	299.68	7.3202	7.3202	5.1684	9917.0			
343.90	300.00	0.29970	0.030100	9956.8	9493.7	0.031600	0.30000	0.0100000	40.000	498.00	9936.7	-0.0032337	341.35	301.00	9.0698	9.0698	6.7366	9936.7			
345.22	300.00	0.30140	0.030100	10013	9703.2	0.031000	0.30080	0.0100000	40.000	499.00	9937.6	-0.0031354	342.67	302.32	8.3708	8.3708	6.3438	9937.6			
346.54	300.00	0.29990	0.028800	10413	11004	0.027300	0.30040	0.0100000	40.000	500.00	9933.4	-0.0035603	343.99	303.65	3.8232	3.8232	4.0137	9933.4			
347.86	300.00	0.29990	0.028100	10673	10207	0.029400	0.30010	0.0100000	40.000	501.00	9974.0	0.00050836	345.31	304.97	3.1348	3.1348	-1.6194	9974.0			
349.18	300.00	0.30080	0.029900	10060	10108	0.029700	0.30020	0.0100000	40.000	502.00	9943.8	-0.0025223	346.64	306.29	-4.3303	-4.3303	-7.8731	9943.8			
350.50	300.00	0.30080	0.032600	9227.0	9852.5	0.030500	0.30050	0.0100000	40.000	503.00	9953.2	-0.0015771	347.96	307.61	-19.095	-19.095	-13.331	9953.2			
351.83	300.00	0.30060	0.029800	10087	9583.3	0.031200	0.29900	0.0100000	40.000	504.00	9915.2	-0.0053868	349.28	308.93	-22.898	-22.898	-17.771	9915.2			
353.15	300.00	0.29980	0.031300	9578.3	9400.0	0.032000	0.30080	0.0100000	40.000	505.00	9862.1	-0.010713	350.60	310.25	-23.465	-23.465	-18.427	9862.1			
354.47	300.00	0.30020	0.031300	9591.1	9530.2	0.031500	0.30020	0.0100000	40.000	506.00	9838.0	-0.013128	351.92	311.57	-19.066	-19.066	-12.869	9838.0			
355.79	300.00	0.30020	0.031900	9410.7	9966.8	0.030100	0.30000	0.0100000	40.000	507.00	9836.8	-0.013255	353.24	312.89	-7.6092	-7.6092	-6.1176	9836.8			
357.11	300.00	0.30000	0.029900	10033	10108	0.029700	0.30020	0.0100000	40.000	508.00	9801.9	-0.016749	354.56	314.21	8.6955	8.6955	0.37071	9801.9			
358.43	300.00	0.30080	0.031000	9703.2	10115	0.029600	0.29940	0.0100000	40.000	509.00	9829.9	-0.013944	355.88	315.54	10.857	10.857	2.7071	9829.9			
359.75	300.00	0.30000	0.028600	10490	9894.4	0.030300	0.29980	0.0100000	40.000	510.00	9898.9	-0.0070217	357.20	316.86	8.9764	8.9764	0.88819	9898.9			
361.07	300.00	0.30110	0.032200	9350.9	10660	0.028200	0.30060	0.0100000	40.000	511.00	9860.0	-0.010925	358.53	318.18	-7.3840	-7.3840	-2.3373	9860.0			
362.39	300.00	0.30010	0.029900	10037	9149.8	0.032700	0.29920	0.0100000	40.000	512.00	9846.2	-0.012311	359.85	319.50	-16.704	-16.704	-4.9005	9846.2			
363.72	300.00	0.29930	0.029700	10077	9530.2	0.031500	0.30020	0.0100000	40.000	513.00	9807.5	-0.016193	361.17	320.82	-7.4321	-7.4321	-5.3689	9807.5			
365.04	300.00	0.30030	0.031900	9413.8	9612.2	0.031200	0.29990	0.0100000	40.000	514.00	9814.8	-0.015456	362.49	322.14	-1.9588	-1.9588	-2.5620	9814.8			
366.36	300.00	0.30130	0.029800	10111	9708.7	0.030900	0.30000	0.0100000	40.000	515.00	9826.6	-0.014277	363.81	323.46	6.6339	6.6339	1.7696	9826.6			
367.68	300.00	0.29940	0.030000	9980.0	9385.6	0.031900	0.29940	0.0100000	40.000	516.00	9823.7	-0.014566	365.13	324.78	6.6505	6.6505	4.3596	9823.7			
369.00	300.00	0.29970	0.029700	10091	9996.7	0.030000	0.29990	0.0100000	40.000	517.00	9846.9	-0.012242	366.45	326.10	4.9543	4.9543	5.0127	9846.9			
370.32	300.00	0.30000	0.030900	9708.7	8832.4	0.034000	0.30030	0.0100000	40.000	518.00	9848.6	-0.012067	367.77	327.43	5.5180	5.5180	2.4192	9848.6			
371.64	300.00	0.29990	0.031600	9490.5	10081	0.029700	0.29940	0.0100000	40.000	519.00	9846.8	-0.012244	369.09	328.75	1.3068	1.3068	0.015068	9846.8			
372.96	300.00	0.30100	0.029900	10067	11152	0.026900	0.30000	0.0100000	40.000	520.00	9860.2	-0.010909	370.42	330.07	-6.3336	-6.3336	0.19508	9860.2			
374.28	300.00	0.29910	0.027300	10956	10186	0.029500	0.30050	0.0100000	40.000	521.00	9849.7	-0.011956	371.74	331.39	-5.3702	-5.3702	1.9918	9849.7			
375.61	300.00	0.29910	0.029100	10278	9917.5	0.030300	0.30050	0.0100000	40.000	522.00	9805.3	-0.016409	373.06	332.71	5.8543	5.8543	6.4808	9805.3			
376.93	300.00	0.30180	0.030500	9895.1	9295.0	0.032200	0.29930	0.0100000	40.000	523.00	9838.8	-0.013053	374.38	334.03	14.502	14.502	13.527	9838.8			
378.25	300.00	0.30070	0.029800	10091	10007	0.030000	0.30020	0.0100000	40.000	524.00	9904.3	-0.0064815	375.70	335.35	23.752	23.752	19.496	9904.3			
379.57	300.00	0.30000	0.030100	9966.8	9830.1	0.030600	0.30080	0.0100000	40.000	525.00	9896.0	-0.0073094	377.02	336.67	28.899	28.899	25.532	9896.0			
380.89	300.00	0.30020	0.027800	10799	9339.6	0.032100	0.29980	0.0100000	40.000	526.00	9933.6	-0.0035381	378.34	338.00	24.474	24.474	28.738	9933.6			
382.21	300.00	0.29990	0.031600	9490.5	10017	0.029900	0.29950	0.0100000	40.000	527.00	10015	0.0046318	379.66	339.32	36.036	36.036	25.970	10015			
383.53	300.00	0.29940	0.031600	9474.7	10003	0.030000	0.30010	0.0100000	40.000	528.00	10006	0.0037708	380.99	340.64	30.528	30.528	20.576	10006			
384.86	300.00	0.29970	0.029800	10057	10071	0.029700	0.29910	0.0100000	40.000	529.00	10098	0.012922	382.31	341.96	9.9105	9.9105	13.150	10098			
386.18	300.00	0.30010	0.029900	10037	10394	0.028900	0.30040	0.0100000	40.000	530.00	10094	0.012552	383.63	343.28	1.9325	1.9325	5.0308	10094			
387.50	300.00	0.29940	0.029100	10289	9675.2	0.031100	0.30090	0.0100000	40.000	531.00	10037	0.0068101	384.95	344.60	-12.656	-12.656	0.72140	10037			
388.82	300.00	0.29930	0.028900	10356	9727.3	0.030800	0.29960	0.0100000	40.000	532.00	10050	0.0081075	386.27	345.92	-4.5606	-4.5606	0.47139	10050			
390.14	300.00	0.29970	0.029900	10023	9852.5	0.030500	0.30050	0.0100000	40.000	533.00	10036	0.0067562	387.59	347.25	8.9809	8.9809	2.9289	10036			
391.46	300.00	0.30030	0.029200	10284	10906	0.027600	0.30100	0.0100000	40.000	534.00	10064	0.0095561	388.92	348.57	8.6605	8.6605	6.3367	10064			
392.79	300.00	0.29990	0.029800	10064	9438.9	0.031900	0.30110	0.0100000	40.000	535.00	10089	0.012038	390.24	349.89	14.220	14.220	6.2770	10089			
394.11	300.00	0.29970	0.028100	10665	10498	0.028500	0.29920	0.0100000	40.000	536.00	10081	0.011207	391.56	351.21	4.3827	4.3827	2.4078	10081			
395.43	300.00	0.29960	0.028700	10439	11096	0.027100	0.30070	0.0100000	40.000	537.00	10122	0.015356	392.88	352.53	-4.8590	-4.8590	-2.5989	10122			
396.75	300.00	0.29950	0.028800	10399	9816.4	0.030500	0.29940	0.0100000	40.000	538.00	10077	0.010802	394.20	353.85	-10.365	-10.365	-7.5653	10077			
398.07	300.00	0.30000	0.027900	10753	10748	0.027800	0.29880	0.0100000	40.000	539.00	10059	0.0090201	395.52	355.18	-16.373	-16.373	-8.7615	10059			
399.39	300.00	0.30070	0.029500	10193	10003	0.030000	0.30010	0.0100000	40.000	540.00	10044	0.0075036	396.84	356.50	-10.612	-10.612	-7.1690	10044			
400.71	300.00	0.30070	0.030100	9990.0	9950.3	0.030200	0.30050	0.0100000	40.000	541.00	10030	0.0061520	398.17	357.82	-1.5980	-1.5980	-6.1580	10030			
402.04	300.00	0.30010	0.029800	10070	10458	0.028600	0.29910	0.0100000	40.000	542.00	10021	0.0052019	399.49	359.14	3.1033	3.1033	-4.8850	10021			
403.36	300.00	0.29990	0.029200	10271	9634.6	0.031200	0.30060	0.0100000	40.000	543.00	10060	0.0091117	400.81	360.46	-5.3105	-5.3105	-7.0212	10060			
404.68	300.00	0.30070	0.031700	9485.8	9881.2	0.030300	0.29940	0.0100000	40.000	544.00	10049	0.0080808	402.13	361.78	-10.008	-10.008	-11.316	10049			
406.00	300.00	0.29960	0.028700	10439	10526	0.028500	0.30000	0.0100000	40.000	545.00	9980.8	0.0011923	403.45	363.10	-21.293	-21.293	-14.957	9980.8			
407.32	300.00	0.30030	0.030300	9910.9	9655.9	0.031100	0.30030	0.0100000	40.000	546.00	9994.1	0.0025278	404.77	364.43	-23.073	-23.073	-17.677	9994.1			
408.64	300.00	0.30020	0.030400	9875.0	10208	0.029300	0.29910	0.0100000	40.000	547.00	9946.7	-0.0022254	406.10	365.75	-15.099	-15.099	-18.608	9946.7			
409.97	300.00	0.29970	0.030300	9891.1	9063.4	0.033100	0.30000	0.0100000	40.000	548.00	9914.0	-0.0055034	407.42	367.07	-18.913	-18.913	-17.094	9914.0			
411.29	300.00	0.29990	0.030000	9996.7	9630.2	0.031100	0.29950	0.0100000	40.000	549.00	9921.0	-0.0048003	408.74	368.39	-14.661	-14.661	-17.006	9921.0			
412.61	300.00	0.30070	0.029800	10091	9753.2	0.030800	0.30040	0.0100000	40.000	550.00	9882.0	-0.0087211	410.06	369.71	-13.723	-13.723	-17.884	9882.0			
413.93	300.00	0.29920	0.029500	10142	10111	0.029600	0.29930	0.0100000	40.000	551.00	9865.9	-0.010334	411.38	371.03	-22.633	-22.633	-17.323	9865.9			
415.25	300.00	0.29990	0.030700	9768.7	9476.3	0.031700	0.30040	0.0100000	40.000	552.00	9850.9	-0.011833	412.70	372.36	-19.491	-19.491	-18.573	9850.9			
416.57	300.00	0.29970	0.030100	9956.8	10546	0.028400	0.29950	0.0100000	40.000	553.00	9787.0	-0.018247	414.03	373.68	-16.106	-16.106	-19.669	9787.0			
417.89	300.00	0.30070	0.031000	9700.0	9636.7	0.031100	0.29970	0.0100000	40.000	554.00	9792.6	-0.017685	415.35	375.00	-20.910	-20.910	-19.691	9792.6			
419.22	300.00	0.29920	0.032100	9320.9	9463.7	0.031700	0.30000	0.0100000	40.000	555.00	9788.6	-0.018085	416.67	376.32	-19.203	-19.203	-17.912	9788.6			
420.54	300.00	0.30050	0.029100	10326	9718.4	0.030900	0.30030	0.0100000	40.000	556.00	9712.0	-0.025775	417.99	377.64	-22.741	-22.741	-12.997	9712.0			
421.86	300.00	0.29940	0.031900	9385.6	9503.2	0.031600	0.30030	0.0100000	40.000	557.00	9700.4	-0.026932	419.31	378.96	-10.599	-10.599	-5.3366	9700.4			
423.18	300.00	0.30070	0.031900	9426.3	10410	0.028800	0.29980	0.0100000	40.000	558.00	9686.4	-0.028336	420.63	380.29	8.4689	8.4689	0.98295	9686.4			
424.50	300.00	0.30030	0.030600	9813.7	9963.6	0.030200	0.30090	0.0100000	40.000	559.00	9731.3	-0.023831	421.96	381.61	17.392	17.392	8.0085	9731.3			
425.83	300.00	0.29930	0.030500	9813.1	9927.4	0.030300	0.30080	0.0100000	40.000	560.00	9752.5	-0.021712	423.28	382.93	12.394	12.394	12.606	9752.5			
427.15	300.00	0.30000	0.028900	10381	9665.6	0.031100	0.30060	0.0100000	40.000	561.00	9782.3	-0.018715	424.60	384.25	12.387	12.387	13.289	9782.3			
428.47	300.00	0.30040	0.030800	9753.2	9636.7	0.031100	0.29970	0.0100000	40.000	562.00	9742.8	-0.022678	425.92	385.57	12.389	12.389	13.593	9742.8			
429.79	300.00	0.29990	0.031700	9460.6	9115.2	0.033000	0.30080	0.0100000	40.000	563.00	9818.0	-0.015137	427.24	386.89	11.883	11.883	13.618	9818.0			
431.11	300.00	0.30010	0.030100	9970.1	9752.4	0.030700	0.29940	0.0100000	40.000	564.00	9816.5	-0.015288	428.56	388.22	18.911	18.911	13.627	9816.5			
432.43	300.00	0.30030	0.028700	10463	9797.4	0.030600	0.29980	0.0100000	40.000	565.00	9824.0	-0.014533	429.88	389.54	12.522	12.522	12.804	9824.0			
433.75	300.00	0.30010	0.030500	9839.3	8916.4	0.033500	0.29870	0.0100000	40.000	566.00	9864.8	-0.010445	431.21	390.86	12.433	12.433	10.328	9864.8			
435.08	300.00	0.29980	0.030300	9894.4	9413.8	0.031900	0.30030	0.0100000	40.000	567.00	9876.6	-0.0092581	432.53	392.18	8.2745	8.2745	5.1180	9876.6			
436.40	300.00	0.30000	0.029600	10135	9914.2	0.030300	0.30040	0.0100000	40.000	568.00	9872.4	-0.0096850	433.85	393.50	-0.50174	-0.50174	1.8024	9872.4			
437.72	300.00	0.30000	0.030400	9868.4	10007	0.030000	0.30020	0.0100000	40.000	569.00	9874.9	-0.0094285	435.17	394.82	-7.1374	-7.1374	-0.095224	9874.9			
439.04	300.00	0.30000	0.030200	9933.8	10074	0.029800	0.30020	0.0100000	40.000	570.00	9862.3	-0.010692	436.49	396.14	-4.0558	-4.0558	0.79776	9862.3			
440.36	300.00	0.29850	0.029200	10223	10381	0.028900	0.30000	0.0100000	40.000	571.00	9834.5	-0.013485	437.81	397.47	2.9443	2.9443	4.4319	9834.5			
441.68	300.00	0.30150	0.030500	9885.2	9281.7	0.032300	0.29980	0.0100000	40.000	572.00	9865.8	-0.010345	439.14	398.79	12.739	12.739	8.8014	9865.8			
443.01	300.00	0.29980	0.030700	9765.5	11055	0.027200	0.30070	0.0100000	40.000	573.00	9892.6	-0.0076507	440.46	400.11	17.669	17.669	13.610	9892.6			
444.33	300.00	0.30010	0.029700	10104	10514	0.028600	0.30070	0.0100000	40.000	574.00	9917.4	-0.0051651	441.78	401.43	14.710	14.710	17.182	9917.4			
445.65	300.00	0.30130	0.030700	9814.3	9794.8	0.030700	0.30070	0.0100000	40.000	575.00	9925.4	-0.0043635	443.10	402.75	19.985	19.985	19.200	9925.4			
446.97	300.00	0.30010	0.029800	10070	10320	0.029100	0.30030	0.0100000	40.000	576.00	9946.6	-0.0022382	444.42	404.07	20.805	20.805	18.572	9946.6			
448.29	300.00	0.29990	0.030800	9737.0	9966.9	0.030200	0.30100	0.0100000	40.000	577.00	10010	0.0041320	445.74	405.40	22.831	22.831	15.553	10010			
449.61	300.00	0.29970	0.030200	9923.8	9413.8	0.031900	0.30030	0.0100000	40.000	578.00	10013	0.0043775	447.07	406.72	14.526	14.526	8.9986	10013			
450.93	300.00	0.30010	0.029800	10070	10463	0.028700	0.30030	0.0100000	40.000	579.00	10043	0.0074617	448.39	408.04	-0.38180	-0.38180	1.8566	10043			
452.26	300.00	0.30040	0.030500	9849.2	9699.0	0.030900	0.29970	0.0100000	40.000	580.00	10026	0.0057250	449.71	409.36	-12.788	-12.788	-5.9458	10026			
453.58	300.00	0.30070	0.028700	10477	9342.7	0.032100	0.29990	0.0100000	40.000	581.00	10001	0.0032052	451.03	410.68	-14.905	-14.905	-12.562	10001			
454.90	300.00	0.30070	0.029700	10125	10323	0.029100	0.30040	0.0100000	40.000	582.00	9949.3	-0.0019700	452.35	412.00	-16.181	-16.181	-14.718	9949.3			
456.22	300.00	0.29970	0.029300	10229	10201	0.029400	0.29990	0.0100000	40.000	583.00	9983.1	0.0014292	453.67	413.33	-18.553	-18.553	-15.547	9983.1			
457.54	300.00	0.29990	0.029000	10341	9635.5	0.031000	0.29870	0.0100000	40.000	584.00	9927.9	-0.0041138	454.99	414.65	-11.165	-11.165	-14.739	9927.9			
458.86	300.00	0.30000	0.029200	10274	9920.3	0.030100	0.29860	0.0100000	40.000	585.00	9888.9	-0.0080222	456.32	415.97	-16.932	-16.932	-13.533	9888.9			
460.19	300.00	0.29950	0.030100	9950.2	10242	0.029300	0.30010	0.0100000	40.000	586.00	9922.6	-0.0046452	457.64	417.29	-10.863	-10.863	-12.208	9922.6			
461.51	300.00	0.29980	0.028800	10410	10250	0.029200	0.29930	0.0100000	40.000	587.00	9873.9	-0.0095288	458.96	418.61	-10.154	-10.154	-8.8311	9873.9			
462.83	300.00	0.29960	0.029900	10020	9465.2	0.031600	0.29910	0.0100000	40.000	588.00	9863.6	-0.010561	460.28	419.93	-11.927	-11.927	-2.0623	9863.6			
464.15	300.00	0.30080	0.029700	10128	10560	0.028400	0.29990	0.0100000	40.000	589.00	9851.3	-0.011795	461.60	421.25	5.7201	5.7201	3.1718	9851.3			
465.47	300.00	0.29990	0.030800	9737.0	9643.1	0.031100	0.29990	0.0100000	40.000	590.00	9855.1	-0.011418	462.92	422.58	16.912	16.912	5.6034	9855.1			
466.79	300.00	0.30020	0.030700	9778.5	9546.3	0.031300	0.29880	0.0100000	40.000	591.00	9916.0	-0.0053085	464.25	423.90	15.308	15.308	6.3851	9916.0			
468.12	300.00	0.29970	0.030300	9891.1	9297.2	0.032300	0.30030	0.0100000	40.000	592.00	9943.0	-0.0025942	465.57	425.22	2.0043	2.0043	4.5367	9943.0			
469.44	300.00	0.30140	0.029900	10080	9993.3	0.030000	0.29980	0.0100000	40.000	593.00	9908.5	-0.0060601	466.89	426.54	-8.0182	-8.0182	2.3994	9908.5			
470.76	300.00	0.29990	0.031300	9581.5	9894.7	0.030400	0.30080	0.0100000	40.000	594.00	9872.1	-0.0097141	468.21	427.86	-3.5221	-3.5221	0.86877	9872.1			
472.08	300.00	0.29810	0.027200	10960	9695.8	0.030900	0.29960	0.0100000	40.000	595.00	9898.5	-0.0070629	469.53	429.18	6.2252	6.2252	1.7813	9898.5			
473.40	300.00	0.30010	0.029600	10139	10502	0.028500	0.29930	0.0100000	40.000	596.00	9924.8	-0.0044273	470.85	430.51	7.6546	7.6546	3.7799	9924.8			
474.72	300.00	0.29930	0.031300	9562.3	9297.2	0.032300	0.30030	0.0100000	40.000	597.00	9923.3	-0.0045775	472.17	431.83	6.5670	6.5670	4.6008	9923.3			
476.04	300.00	0.29930	0.031500	9501.6	9750.8	0.030900	0.30130	0.0100000	40.000	598.00	9910.3	-0.0058828	473.50	433.15	1.9749	1.9749	3.7029	9910.3			
477.37	300.00	0.30070	0.030600	9826.8	9155.5	0.032800	0.30030	0.0100000	40.000	599.00	9949.1	-0.0019821	474.82	434.47	0.58225	0.58225	3.3944	9949.1			
478.69	300.00	0.30030	0.031000	9687.1	10542	0.028400	0.29940	0.0100000	40.000	600.00	9924.9	-0.0044159	476.14	435.79	1.7359	1.7359	5.4044	9924.9			
480.01	300.00	0.29960	0.029100	10296	10978	0.027400	0.30080	0.0100000	40.000	601.00	9919.8	-0.0049250	477.46	437.11	6.1119	6.1119	8.6881	9919.8			
481.33	300.00	0.29950	0.033100	9048.3	9910.9	0.030300	0.30030	0.0100000	40.000	602.00	9936.4	-0.0032608	478.78	438.44	16.617	16.617	10.051	9936.4			
482.65	300.00	0.30070	0.030300	9924.1	9597.4	0.031300	0.30040	0.0100000	40.000	603.00	9983.8	0.0014916	480.10	439.76	18.393	18.393	7.6080	9983.8			
483.97	300.00	0.30030	0.030000	10010	9435.7	0.031900	0.30100	0.0100000	40.000	604.00	10003	0.0033912	481.43	441.08	7.3993	7.3993	4.6063	10003			
485.30	300.00	0.29940	0.027700	10809	10190	0.029400	0.29960	0.0100000	40.000	605.00	10008	0.0039417	482.75	442.40	-10.482	-10.482	1.8348	10008			
486.62	300.00	0.29890	0.031000	9641.9	10472	0.028600	0.29950	0.0100000	40.000	606.00	9973.1	0.00041902	484.07	443.72	-8.8962	-8.8962	3.2093	9973.1			
487.94	300.00	0.30050	0.030500	9852.5	10211	0.029400	0.30020	0.0100000	40.000	607.00	9929.3	-0.0039705	485.39	445.04	2.7593	2.7593	7.7351	9929.3			
489.26	300.00	0.29960	0.030900	9695.8	9976.7	0.030100	0.30030	0.0100000	40.000	608.00	9983.4	0.0014504	486.71	446.36	25.266	25.266	11.366	9983.4			
490.58	300.00	0.30080	0.027700	10859	10282	0.029100	0.29920	0.0100000	40.000	609.00	10021	0.0052553	488.03	447.69	30.028	30.028	12.608	10021			
491.90	300.00	0.29970	0.032100	9336.4	10050	0.029800	0.29950	0.0100000	40.000	610.00	10094	0.012553	489.36	449.01	7.6727	7.6727	10.869	10094			
493.23	300.00	0.30080	0.031400	9579.6	9536.5	0.031500	0.30040	0.0100000	40.000	611.00	10072	0.010381	490.68	450.33	-2.6862	-2.6862	5.8809	10072			
494.55	300.00	0.29990	0.031200	9612.2	9894.7	0.030400	0.30080	0.0100000	40.000	612.00	10009	0.0039733	492.00	451.65	-5.9343	-5.9343	0.72663	10009			
495.87	300.00	0.30090	0.029200	10305	10292	0.029100	0.29950	0.0100000	40.000	613.00	10046	0.0077649	493.32	452.97	0.32388	0.32388	-2.1135	10046			
497.19	300.00	0.30040	0.032100	9358.3	10391	0.028900	0.30030	0.0100000	40.000	614.00	10068	0.0099283	494.64	454.29	4.2570	4.2570	-3.4178	10068			
498.51	300.00	0.29930	0.029100	10285	10010	0.030000	0.30030	0.0100000	40.000	615.00	10045	0.0076187	495.96	455.62	-6.5279	-6.5279	-3.3064	10045			
499.83	300.00	0.30000	0.029100	10309	8958.3	0.033600	0.30100	0.0100000	40.000	616.00	10037	0.0068686	497.29	456.94	-9.2077	-9.2077	-4.1965	10037			
501.15	300.00	0.29990	0.031500	9520.6	9582.8	0.031400	0.30090	0.0100000	40.000	617.00	10018	0.0049676	498.61	458.26	-5.3774	-5.3774	-6.3737	10018			
502.48	300.00	0.29950	0.029900	10017	10432	0.028700	0.29940	0.0100000	40.000	618.00	10020	0.0051504	499.93	459.58	-4.1267	-4.1267	-4.8594	10020			
503.80	300.00	0.29910	0.028200	10606	10547	0.028500	0.30060	0.0100000	40.000	619.00	10018	0.0049135	501.25	460.90	-6.6290	-6.6290	-1.5764	10018			
505.12	300.00	0.29990	0.030300	9897.7	10683	0.028100	0.30020	0.0100000	40.000	620.00	10010	0.0041605	502.57	462.22	1.0436	1.0436	1.3484	10010			
506.44	300.00	0.30060	0.031100	9665.6	10088	0.029700	0.29960	0.0100000	40.000	621.00	9979.6	0.0010690	503.89	463.54	7.2073	7.2073	3.4848	9979.6			
507.76	300.00	0.29910	0.029500	10139	9636.7	0.031100	0.29970	0.0100000	40.000	622.00	10046	0.0077644	505.21	464.87	9.2465	9.2465	3.3108	10046			
509.08	300.00	0.29930	0.029200	10250	10705	0.028100	0.30080	0.0100000	40.000	623.00	10048	0.0078888	506.54	466.19	6.5557	6.5557	3.1831	10048			
510.41	300.00	0.29990	0.030100	9963.5	10050	0.029800	0.29950	0.0100000	40.000	624.00	10037	0.0068795	507.86	467.51	-7.4993	-7.4993	2.8214	10037			
511.73	300.00	0.29990	0.030000	9996.7	8952.2	0.033500	0.29990	0.0100000	40.000	625.00	10027	0.0058567	509.18	468.83	0.40533	0.40533	1.9452	10027			
513.05	300.00	0.29940	0.027200	11007	10033	0.029900	0.30000	0.0100000	40.000	626.00	10007	0.0038097	510.50	470.15	5.3987	5.3987	-0.21465	10007			
514.37	300.00	0.30010	0.030200	9937.1	10074	0.029700	0.29920	0.0100000	40.000	627.00	10066	0.0096923	511.82	471.47	4.8658	4.8658	-2.5642	10066			
515.69	300.00	0.29960	0.028400	10549	10249	0.029300	0.30030	0.0100000	40.000	628.00	10054	0.0085403	513.14	472.80	-4.2438	-4.2438	-6.0452	10054			
517.01	300.00	0.29970	0.029400	10194	9927.2	0.030200	0.29980	0.0100000	40.000	629.00	10036	0.0067168	514.47	474.12	-19.247	-19.247	-8.4293	10036			
518.33	300.00	0.30010	0.029800	10070	10124	0.029800	0.30170	0.0100000	40.000	630.00	9993.7	0.0024842	515.79	475.44	-17.000	-17.000	-9.2359	9993.7			
519.66	300.00	0.29970	0.029000	10334	9403.1	0.032000	0.30090	0.0100000	40.000	631.00	9968.5	-3.7186e-05	517.11	476.76	-6.5219	-6.5219	-8.3185	9968.5			
520.98	300.00	0.29990	0.030000	9996.7	10938	0.027500	0.30080	0.0100000	40.000	632.00	9975.4	0.00064942	518.43	478.08	0.83276	0.83276	-3.0038	9975.4			
522.30	300.00	0.29820	0.029200	10212	9920.8	0.030300	0.30060	0.0100000	40.000	633.00	10002	0.0033112	519.75	479.40	0.34350	0.34350	2.6024	10002			
523.62	300.00	0.30020	0.028300	10608	10081	0.029700	0.29940	0.0100000	40.000	634.00	9982.5	0.0013619	521.07	480.72	7.3266	7.3266	7.4192	9982.5			
524.94	300.00	0.30030	0.030400	9878.3	10177	0.029400	0.29920	0.0100000	40.000	635.00	9967.2	-0.00016581	522.39	482.05	11.031	11.031	10.703	9967.2			
526.26	300.00	0.30060	0.029400	10224	9581.5	0.031300	0.29990	0.0100000	40.000	636.00	10041	0.0072442	523.72	483.37	17.562	17.562	13.715	10041			
527.59	300.00	0.30040	0.029500	10183	10190	0.029500	0.30060	0.0100000	40.000	637.00	10045	0.0076815	525.04	484.69	17.253	17.253	16.433	10045			
528.91	300.00	0.30060	0.028300	10622	9341.6	0.032200	0.30080	0.0100000	40.000	638.00	10059	0.0090797	526.36	486.01	15.400	15.400	19.097	10059			
530.23	300.00	0.29990	0.028700	10449	10050	0.029800	0.29950	0.0100000	40.000	639.00	10072	0.010353	527.68	487.33	20.920	20.920	19.607	10072			
531.55	300.00	0.29910	0.028200	10606	9661.3	0.031000	0.29950	0.0100000	40.000	640.00	10130	0.016117	529.00	488.65	24.348	24.348	18.148	10130			
532.87	300.00	0.29950	0.030600	9787.6	10155	0.029600	0.30060	0.0100000	40.000	641.00	10149	0.018030	530.32	489.98	20.111	20.111	16.100	10149			
534.19	300.00	0.30090	0.030400	9898.0	10231	0.029400	0.30080	0.0100000	40.000	642.00	10182	0.021380	531.65	491.30	9.9614	9.9614	11.523	10182			
535.52	300.00	0.30060	0.029100	10330	10194	0.029400	0.29970	0.0100000	40.000	643.00	10179	0.021052	532.97	492.62	5.1592	5.1592	7.5292	10179			
536.84	300.00	0.29970	0.030500	9826.2	10297	0.029000	0.29860	0.0100000	40.000	644.00	10180	0.021209	534.29	493.94	-1.9661	-1.9661	5.0166	10180			
538.16	300.00	0.29950	0.027500	10891	9730.5	0.030800	0.29970	0.0100000	40.000	645.00	10184	0.021536	535.61	495.26	4.3802	4.3802	6.5215	10184			
539.48	300.00	0.30030	0.030500	9845.9	10504	0.028600	0.30040	0.0100000	40.000	646.00	10167	0.019835	536.93	496.58	7.5484	7.5484	10.088	10167			
540.80	300.00	0.29880	0.029300	10198	10125	0.029600	0.29970	0.0100000	40.000	647.00	10215	0.024643	538.25	497.91	17.486	17.486	15.629	10215			
542.12	300.00	0.30090	0.030300	9930.7	10367	0.028900	0.29960	0.0100000	40.000	648.00	10215	0.024659	539.58	499.23	22.990	22.990	19.603	10215			
543.45	300.00	0.30100	0.029400	10238	10516	0.028500	0.29970	0.0100000	40.000	649.00	10275	0.030714	540.90	500.55	25.741	25.741	20.574	10275			
544.77	300.00	0.29980	0.028900	10374	11134	0.026900	0.29950	0.0100000	40.000	650.00	10288	0.032039	542.22	501.87	24.251	24.251	17.092	10288			
546.09	300.00	0.30030	0.028900	10391	10525	0.028400	0.29890	0.0100000	40.000	651.00	10348	0.038016	543.54	503.19	12.403	12.403	10.136	10348			
547.41	300.00	0.30040	0.028000	10729	10104	0.029700	0.30010	0.0100000	40.000	652.00	10339	0.037084	544.86	504.51	0.072076	0.072076	3.2742	10339			
548.73	300.00	0.30020	0.030800	9746.8	10870	0.027600	0.30000	0.0100000	40.000	653.00	10332	0.036413	546.18	505.84	-11.788	-11.788	-2.8871	10332			
550.05	300.00	0.30000	0.029000	10345	9953.6	0.030200	0.30060	0.0100000	40.000	654.00	10297	0.032888	547.50	507.16	-8.5678	-8.5678	-5.6561	10297			
551.37	300.00	0.29990	0.029600	10132	10149	0.029500	0.29940	0.0100000	40.000	655.00	10291	0.032300	548.83	508.48	-6.5550	-6.5550	-6.2485	10291			
552.70	300.00	0.30050	0.031500	9539.7	9820.8	0.030700	0.30150	0.0100000	40.000	656.00	10302	0.033461	550.15	509.80	-1.4416	-1.4416	-4.5029	10302			
554.02	300.00	0.30130	0.030100	10010	10588	0.028400	0.30070	0.0100000	40.000	657.00	10286	0.031782	551.47	511.12	-2.8900	-2.8900	-4.1157	10286			
555.34	300.00	0.29980	0.029200	10267	10193	0.029500	0.30070	0.0100000	40.000	658.00	10290	0.032192	552.79	512.44	-3.0602	-3.0602	-5.5547	10290			
556.66	300.00	0.29950	0.030100	9950.2	10609	0.028400	0.30130	0.0100000	40.000	659.00	10278	0.031019	554.11	513.77	-6.6314	-6.6314	-7.4315	10278			
557.98	300.00	0.29920	0.026700	11206	10328	0.029000	0.29950	0.0100000	40.000	660.00	10286	0.031814	555.43	515.09	-13.750	-13.750	-9.8617	10286			
559.30	300.00	0.30010	0.029800	10070	10913	0.027500	0.30010	0.0100000	40.000	661.00	10244	0.027575	556.76	516.41	-10.826	-10.826	-11.871	10244			
560.63	300.00	0.29970	0.029600	10125	9960.1	0.030100	0.29980	0.0100000	40.000	662.00	10216	0.024799	558.08	517.73	-15.041	-15.041	-13.201	10216			
561.95	300.00	0.29870	0.028600	10444	10091	0.029700	0.29970	0.0100000	40.000	663.00	10242	0.027350	559.40	519.05	-13.107	-13.107	-12.271	10242			
563.27	300.00	0.29930	0.029400	10180	9456.0	0.031800	0.30070	0.0100000	40.000	664.00	10188	0.021955	560.72	520.37	-13.280	-13.280	-10.570	10188			
564.59	300.00	0.29940	0.030500	9816.4	10173	0.029400	0.29910	0.0100000	40.000	665.00	10171	0.020309	562.04	521.69	-9.1004	-9.1004	-6.7408	10171			
565.91	300.00	0.29920	0.030300	9874.6	9973.4	0.030100	0.30020	0.0100000	40.000	666.00	10163	0.019517	563.36	523.02	-2.3224	-2.3224	-3.7363	10163			
567.23	300.00	0.29940	0.029500	10149	10152	0.029600	0.30050	0.0100000	40.000	667.00	10194	0.022537	564.69	524.34	4.1059	4.1059	-0.58823	10194			
568.56	300.00	0.30020	0.030200	9940.4	10211	0.029400	0.30020	0.0100000	40.000	668.00	10161	0.019302	566.01	525.66	1.9152	1.9152	0.67783	10161			
569.88	300.00	0.30080	0.029800	10094	10121	0.029700	0.30060	0.0100000	40.000	669.00	10200	0.023138	567.33	526.98	2.4605	2.4605	-1.2470	10200			
571.20	300.00	0.30070	0.028100	10701	10682	0.028000	0.29910	0.0100000	40.000	670.00	10173	0.020486	568.65	528.30	-2.7701	-2.7701	-4.1851	10173			
572.52	300.00	0.29960	0.028000	10700	10247	0.029200	0.29920	0.0100000	40.000	671.00	10204	0.023576	569.97	529.62	-11.947	-11.947	-5.7629	10204			
573.84	300.00	0.30080	0.030200	9960.3	9943.5	0.030100	0.29930	0.0100000	40.000	672.00	10141	0.017247	571.29	530.95	-10.584	-10.584	-5.8607	10141			
575.16	300.00	0.29930	0.030300	9877.9	10638	0.028200	0.30000	0.0100000	40.000	673.00	10137	0.016839	572.62	532.27	-5.9740	-5.9740	-5.3232	10137			
576.49	300.00	0.30020	0.030600	9810.5	9740.3	0.030800	0.30000	0.0100000	40.000	674.00	10137	0.016839	573.94	533.59	1.9718	1.9718	-3.1667	10137			
577.81	300.00	0.29990	0.030800	9737.0	9609.0	0.031200	0.29980	0.0100000	40.000	675.00	10166	0.019821	575.26	534.91	-0.082813	-0.082813	-1.8271	10166			
579.13	300.00	0.29990	0.031500	9520.6	9983.4	0.030100	0.30050	0.0100000	40.000	676.00	10139	0.017063	576.58	536.23	-1.1639	-1.1639	-0.48310	10139			
580.45	300.00	0.29990	0.028900	10377	10453	0.028700	0.30000	0.0100000	40.000	677.00	10135	0.016672	577.90	537.55	-3.8868	-3.8868	-1.5730	10135			
581.77	300.00	0.30000	0.029800	10067	9910.9	0.030300	0.30030	0.0100000	40.000	678.00	10145	0.017642	579.22	538.88	0.74625	0.74625	-2.4429	10145			
583.09	300.00	0.30020	0.031800	9440.3	10996	0.027300	0.30020	0.0100000	40.000	679.00	10138	0.016955	580.54	540.20	-3.4779	-3.4779	-2.5503	10138			
584.41	300.00	0.30100	0.029800	10101	10054	0.029700	0.29860	0.0100000	40.000	680.00	10143	0.017416	581.87	541.52	-4.4319	-4.4319	-2.4557	10143			
585.74	300.00	0.29960	0.030700	9759.0	10974	0.027400	0.30070	0.0100000	40.000	681.00	10113	0.014479	583.19	542.84	-1.7013	-1.7013	-2.7513	10113			
587.06	300.00	0.30080	0.029100	10337	9587.9	0.031300	0.30010	0.0100000	40.000	682.00	10128	0.015942	584.51	544.16	-3.4138	-3.4138	-2.2893	10128			
588.38	300.00	0.30010	0.029300	10242	9874.6	0.030300	0.29920	0.0100000	40.000	683.00	10134	0.016564	585.83	545.48	-0.73173	-0.73173	-0.29244	10134			
589.70	300.00	0.30040	0.032000	9387.5	10091	0.029700	0.29970	0.0100000	40.000	684.00	10110	0.014111	587.15	546.80	-1.1680	-1.1680	2.9028	10110			
591.02	300.00	0.30020	0.030300	9907.6	10080	0.029900	0.30140	0.0100000	40.000	685.00	10118	0.014910	588.47	548.13	5.5526	5.5526	6.6972	10118			
592.35	300.00	0.30050	0.031100	9662.4	9596.2	0.031200	0.29940	0.0100000	40.000	686.00	10128	0.015995	589.80	549.45	14.275	14.275	8.4951	10128			
593.67	300.00	0.30050	0.028300	10618	9891.4	0.030400	0.30070	0.0100000	40.000	687.00	10161	0.019304	591.12	550.77	15.558	15.558	9.3076	10161			
594.99	300.00	0.30060	0.028700	10474	10355	0.029000	0.30030	0.0100000	40.000	688.00	10182	0.021378	592.44	552.09	8.2574	8.2574	7.7558	10182			
596.31	300.00	0.29970	0.028900	10370	10067	0.029800	0.30000	0.0100000	40.000	689.00	10194	0.022533	593.76	553.41	2.8948	2.8948	5.9790	10194			
597.63	300.00	0.29890	0.029100	10271	10218	0.029400	0.30040	0.0100000	40.000	690.00	10167	0.019854	595.08	554.74	-2.2066	-2.2066	4.9782	10167			
598.95	300.00	0.29950	0.027600	10851	10067	0.029700	0.29900	0.0100000	40.000	691.00	10188	0.021985	596.41	556.06	5.3909	5.3909	4.4006	10188			
600.27	300.00	0.29880	0.029800	10027	10553	0.028400	0.29970	0.0100000	40.000	692.00	10170	0.020190	597.73	557.38	10.554	10.554	4.2941	10170			
601.60	300.00	0.29980	0.030100	9960.1	10074	0.029800	0.30020	0.0100000	40.000	693.00	10227	0.025938	599.05	558.70	5.3696	5.3696	4.8397	10227			
602.92	300.00	0.30120	0.029600	10176	10125	0.029700	0.30070	0.0100000	40.000	694.00	10217	0.024873	600.37	560.02	2.3622	2.3622	6.4264	10217			
604.24	300.00	0.30110	0.028400	10602	9907.6	0.030300	0.30020	0.0100000	40.000	695.00	10200	0.023202	601.69	561.34	0.52154	0.52154	7.4936	10200			
605.56	300.00	0.29920	0.028100	10648	9836.1	0.030500	0.30000	0.0100000	40.000	696.00	10199	0.023124	603.01	562.67	13.324	13.324	9.2104	10199			
606.88	300.00	0.30060	0.029900	10054	10676	0.028100	0.30000	0.0100000	40.000	697.00	10240	0.027159	604.33	563.99	15.890	15.890	10.301	10240			
608.20	300.00	0.29990	0.029000	10341	10887	0.027500	0.29940	0.0100000	40.000	698.00	10285	0.031727	605.66	565.31	13.954	13.954	10.400	10285			
609.53	300.00	0.29990	0.028600	10486	10153	0.029500	0.29950	0.0100000	40.000	699.00	10262	0.029434	606.98	566.63	7.8145	7.8145	6.7002	10262			
610.85	300.00	0.29950	0.029000	10328	10436	0.028700	0.29950	0.0100000	40.000	700.00	10280	0.031236	608.30	567.95	1.0160	1.0160	0.70181	10280			
612.17	300.00	0.30120	0.030300	9940.6	10500	0.028600	0.30030	0.0100000	40.000	701.00	10294	0.032585	609.62	569.27	-5.1735	-5.1735	-6.2749	10294			
613.49	300.00	0.30170	0.029400	10262	10599	0.028400	0.30100	0.0100000	40.000	702.00	10276	0.030825	610.94	570.60	-14.102	-14.102	-11.348	10276			
614.81	300.00	0.29960	0.027400	10934	10791	0.027800	0.30000	0.0100000	40.000	703.00	10230	0.026210	612.26	571.92	-20.930	-20.930	-13.760	10230			
616.13	300.00	0.30030	0.029300	10249	9651.6	0.031000	0.29920	0.0100000	40.000	704.00	10219	0.025076	613.59	573.24	-17.549	-17.549	-15.508	10219			
617.46	300.00	0.30000	0.030000	10000	9741.1	0.030900	0.30100	0.0100000	40.000	705.00	10184	0.021586	614.91	574.56	-11.044	-11.044	-15.987	10184			
618.78	300.00	0.30010	0.029600	10139	10064	0.029800	0.29990	0.0100000	40.000	706.00	10183	0.021505	616.23	575.88	-13.914	-13.914	-15.236	10183			
620.10	300.00	0.30030	0.029000	10355	10441	0.028800	0.30070	0.0100000	40.000	707.00	10175	0.020675	617.55	577.20	-16.497	-16.497	-14.442	10175			
621.42	300.00	0.29960	0.028000	10700	10848	0.027600	0.29940	0.0100000	40.000	708.00	10131	0.016310	618.87	578.52	-17.177	-17.177	-15.029	10131			
622.74	300.00	0.29900	0.025700	11634	9875.0	0.030400	0.30020	0.0100000	40.000	709.00	10101	0.013249	620.19	579.85	-13.582	-13.582	-15.218	10101			
624.06	300.00	0.29870	0.027900	10706	10444	0.028800	0.30080	0.0100000	40.000	710.00	10107	0.013834	621.52	581.17	-13.977	-13.977	-15.835	10107			
625.39	300.00	0.30070	0.030300	9924.1	10500	0.028600	0.30030	0.0100000	40.000	711.00	10098	0.012911	622.84	582.49	-14.858	-14.858	-14.661	10098			
626.71	300.00	0.30040	0.030900	9721.7	9699.0	0.030900	0.29970	0.0100000	40.000	712.00	10041	0.0072143	624.16	583.81	-19.581	-19.581	-11.840	10041			
628.03	300.00	0.29940	0.030500	9816.4	9586.5	0.031200	0.29910	0.0100000	40.000	713.00	10036	0.0067099	625.48	585.13	-11.308	-11.308	-8.1043	10036			
629.35	300.00	0.29990	0.028400	10560	9836.6	0.030600	0.30100	0.0100000	40.000	714.00	10008	0.0039533	626.80	586.45	0.52220	0.52220	-5.0523	10008			
630.67	300.00	0.30000	0.029300	10239	9393.8	0.032000	0.30060	0.0100000	40.000	715.00	10039	0.0070456	628.12	587.78	4.7027	4.7027	-3.5502	10039			
631.99	300.00	0.30020	0.027200	11037	9890.7	0.030200	0.29870	0.0100000	40.000	716.00	10043	0.0073925	629.45	589.10	0.40269	0.40269	-3.9034	10043			
633.32	300.00	0.30040	0.029700	10114	9662.4	0.031100	0.30050	0.0100000	40.000	717.00	10050	0.0081081	630.77	590.42	-12.071	-12.071	-6.2103	10050			
634.64	300.00	0.30070	0.029400	10228	9762.2	0.030700	0.29970	0.0100000	40.000	718.00	10006	0.0036889	632.09	591.74	-13.074	-13.074	-8.0074	10006			
635.96	300.00	0.29930	0.031400	9531.8	10247	0.029200	0.29920	0.0100000	40.000	719.00	9977.8	0.00089432	633.41	593.06	-11.012	-11.012	-7.2897	9977.8			
637.28	300.00	0.30010	0.031200	9618.6	10275	0.029100	0.29900	0.0100000	40.000	720.00	9992.2	0.0023334	634.73	594.38	-4.2828	-4.2828	-2.7011	9992.2			
638.60	300.00	0.29930	0.029700	10077	10242	0.029300	0.30010	0.0100000	40.000	721.00	9983.7	0.0014864	636.05	595.71	3.9915	3.9915	3.3703	9983.7			
639.92	300.00	0.30000	0.031000	9677.4	9307.5	0.032200	0.29970	0.0100000	40.000	722.00	9974.4	0.00055391	637.38	597.03	10.872	10.872	10.580	9974.4			
641.25	300.00	0.29980	0.028300	10594	10493	0.028600	0.30010	0.0100000	40.000	723.00	10013	0.0044300	638.70	598.35	17.283	17.283	15.181	10013			
642.57	300.00	0.29980	0.030600	9797.4	10214	0.029400	0.30030	0.0100000	40.000	724.00	10049	0.0080687	640.02	599.67	25.038	25.038	17.963	10049			
643.89	300.00	0.30040	0.031100	9659.2	10299	0.029100	0.29970	0.0100000	40.000	725.00	10060	0.0091858	641.34	600.99	18.722	18.722	19.324	10060			
645.21	300.00	0.30030	0.030800	9750.0	9813.7	0.030600	0.30030	0.0100000	40.000	726.00	10116	0.014773	642.66	602.31	17.899	17.899	17.430	10116			
646.53	300.00	0.30020	0.029300	10246	10214	0.029500	0.30130	0.0100000	40.000	727.00	10103	0.013488	643.98	603.64	17.679	17.679	12.587	10103			
647.85	300.00	0.30070	0.030200	9957.0	9515.8	0.031600	0.30070	0.0100000	40.000	728.00	10146	0.017783	645.31	604.96	7.8134	7.8134	7.0752	10146			
649.17	300.00	0.29920	0.028500	10498	10263	0.029300	0.30070	0.0100000	40.000	729.00	10162	0.019399	646.63	606.28	0.82310	0.82310	2.9732	10162			
650.50	300.00	0.29940	0.028100	10655	10176	0.029500	0.30020	0.0100000	40.000	730.00	10138	0.016996	647.95	607.60	-8.8387	-8.8387	-0.32444	10138			
651.82	300.00	0.29990	0.028800	10413	10267	0.029200	0.29980	0.0100000	40.000	731.00	10113	0.014427	649.27	608.92	-2.6105	-2.6105	-0.83904	10113			
653.14	300.00	0.30010	0.030100	9970.1	10305	0.029200	0.30090	0.0100000	40.000	732.00	10113	0.014411	650.59	610.24	1.1905	1.1905	-0.0056873	10113			
654.46	300.00	0.29940	0.029000	10324	10510	0.028600	0.30060	0.0100000	40.000	733.00	10158	0.018962	651.91	611.56	5.2404	5.2404	2.4988	10158			
655.78	300.00	0.30100	0.029000	10379	10348	0.029000	0.30010	0.0100000	40.000	734.00	10124	0.015518	653.23	612.89	4.9899	4.9899	4.9759	10124			
657.10	300.00	0.29960	0.027300	10974	10070	0.029800	0.30010	0.0100000	40.000	735.00	10142	0.017347	654.56	614.21	3.6835	3.6835	7.2718	10142			
658.43	300.00	0.30000	0.031300	9584.7	10563	0.028400	0.30000	0.0100000	40.000	736.00	10154	0.018526	655.88	615.53	9.7752	9.7752	9.3540	10154			
659.75	300.00	0.29890	0.029200	10236	9621.8	0.031200	0.30020	0.0100000	40.000	737.00	10167	0.019900	657.20	616.85	12.670	12.670	11.186	10167			
661.07	300.00	0.30030	0.028900	10391	10561	0.028500	0.30100	0.0100000	40.000	738.00	10175	0.020721	658.52	618.17	15.651	15.651	12.207	10175			
662.39	300.00	0.29990	0.030000	9996.7	10101	0.029800	0.30100	0.0100000	40.000	739.00	10215	0.024648	659.84	619.49	14.152	14.152	10.789	10215			
663.71	300.00	0.29960	0.028700	10439	9743.5	0.030800	0.30010	0.0100000	40.000	740.00	10233	0.026526	661.16	620.82	8.7887	8.7887	8.2564	10233			
665.03	300.00	0.30070	0.031600	9515.8	9737.0	0.030800	0.29990	0.0100000	40.000	741.00	10232	0.026378	662.49	622.14	2.6836	2.6836	5.5269	10232			
666.35	300.00	0.30050	0.029100	10326	10239	0.029300	0.30000	0.0100000	40.000	742.00	10225	0.025681	663.81	623.46	0.0063635	0.0063635	3.3366	10225			
667.68	300.00	0.29980	0.030800	9733.8	10260	0.029200	0.29960	0.0100000	40.000	743.00	10237	0.026849	665.13	624.78	2.0037	2.0037	1.9594	10237			
669.00	300.00	0.29920	0.028700	10425	9772.0	0.030700	0.30000	0.0100000	40.000	744.00	10231	0.026295	666.45	626.10	3.2007	3.2007	2.6077	10231			
670.32	300.00	0.30100	0.027800	10827	10597	0.028300	0.29990	0.0100000	40.000	745.00	10242	0.027399	667.77	627.42	1.9028	1.9028	4.2206	10242			
671.64	300.00	0.29950	0.030700	9755.7	10546	0.028400	0.29950	0.0100000	40.000	746.00	10243	0.027527	669.09	628.75	5.9252	5.9252	6.3301	10243			
672.96	300.00	0.29970	0.029100	10299	10101	0.029600	0.29900	0.0100000	40.000	747.00	10243	0.027494	670.41	630.07	8.0707	8.0707	9.3502	10243			
674.28	300.00	0.30040	0.030300	9914.2	10385	0.028800	0.29910	0.0100000	40.000	748.00	10270	0.030175	671.74	631.39	12.551	12.551	12.441	10270			
675.61	300.00	0.29950	0.028400	10546	10338	0.029000	0.29980	0.0100000	40.000	749.00	10282	0.031425	673.06	632.71	18.301	18.301	13.903	10282			
676.93	300.00	0.30020	0.029700	10108	10656	0.028200	0.30050	0.0100000	40.000	750.00	10307	0.033881	674.38	634.03	17.358	17.358	12.817	10307			
678.25	300.00	0.30000	0.031700	9463.7	10145	0.029600	0.30030	0.0100000	40.000	751.00	10345	0.037771	675.70	635.35	13.232	13.232	10.009	10345			
679.57	300.00	0.30100	0.027800	10827	10121	0.029700	0.30060	0.0100000	40.000	752.00	10353	0.038507	677.02	636.67	2.6433	2.6433	6.4737	10353			
680.89	300.00	0.30100	0.028000	10750	10549	0.028400	0.29960	0.0100000	40.000	753.00	10347	0.037882	678.34	638.00	-1.4904	-1.4904	3.3335	10347			
682.21	300.00	0.30030	0.029900	10043	10394	0.028900	0.30040	0.0100000	40.000	754.00	10324	0.035577	679.67	639.32	0.62601	0.62601	1.5364	10324			
683.54	300.00	0.30000	0.031200	9615.4	10580	0.028300	0.29940	0.0100000	40.000	755.00	10350	0.038248	680.99	640.64	1.6566	1.6566	2.0291	10350			
684.86	300.00	0.30060	0.029500	10190	10097	0.029800	0.30090	0.0100000	40.000	756.00	10355	0.038739	682.31	641.96	4.2463	4.2463	3.8397	10355			
686.18	300.00	0.29960	0.029100	10296	10556	0.028400	0.29980	0.0100000	40.000	757.00	10342	0.037399	683.63	643.28	5.1071	5.1071	4.3955	10342			
687.50	300.00	0.29950	0.030100	9950.2	10183	0.029500	0.30040	0.0100000	40.000	758.00	10356	0.038816	684.95	644.60	7.5627	7.5627	3.7670	10356			
688.82	300.00	0.30020	0.029800	10074	10823	0.027700	0.29980	0.0100000	40.000	759.00	10384	0.041594	686.27	645.93	3.4046	3.4046	1.5678	10384			
690.14	300.00	0.30020	0.029900	10040	10615	0.028300	0.30040	0.0100000	40.000	760.00	10384	0.041654	687.59	647.25	-1.4857	-1.4857	-0.063340	10384			
691.46	300.00	0.29970	0.030100	9956.8	10558	0.028500	0.30090	0.0100000	40.000	761.00	10350	0.038237	688.92	648.57	-6.7495	-6.7495	-0.66866	10350			
692.79	300.00	0.29990	0.028500	10523	9891.1	0.030300	0.29970	0.0100000	40.000	762.00	10363	0.039510	690.24	649.89	-3.0487	-3.0487	0.25999	10363			
694.11	300.00	0.30020	0.029700	10108	10108	0.029600	0.29920	0.0100000	40.000	763.00	10350	0.038192	691.56	651.21	4.5361	4.5361	2.5760	10350			
695.43	300.00	0.29980	0.026100	11487	9777.8	0.030600	0.29920	0.0100000	40.000	764.00	10364	0.039655	692.88	652.53	8.0479	8.0479	4.7343	10364			
696.75	300.00	0.30050	0.027200	11048	10331	0.029000	0.29960	0.0100000	40.000	765.00	10379	0.041171	694.20	653.85	10.095	10.095	5.2100	10379			
698.07	300.00	0.30020	0.027800	10799	10700	0.028000	0.29960	0.0100000	40.000	766.00	10401	0.043355	695.52	655.18	4.0418	4.0418	2.6466	10401			
699.39	300.00	0.29970	0.030300	9891.1	10265	0.029400	0.30180	0.0100000	40.000	767.00	10398	0.043034	696.85	656.50	-0.67048	-0.67048	-0.39712	10398			
700.72	300.00	0.29930	0.027900	10728	10398	0.028900	0.30050	0.0100000	40.000	768.00	10382	0.041403	698.17	657.82	-8.2807	-8.2807	-4.3208	10382			
702.04	300.00	0.29990	0.030600	9800.7	10967	0.027300	0.29940	0.0100000	40.000	769.00	10385	0.041703	699.49	659.14	-7.1708	-7.1708	-5.7986	10385			
703.36	300.00	0.30050	0.030700	9788.3	10351	0.029100	0.30120	0.0100000	40.000	770.00	10353	0.038532	700.81	660.46	-9.5239	-9.5239	-4.7356	10353			
704.68	300.00	0.29970	0.030600	9794.1	9940.6	0.030300	0.30120	0.0100000	40.000	771.00	10365	0.039716	702.13	661.78	-3.3472	-3.3472	-1.9607	10365			
706.00	300.00	0.29920	0.027900	10724	10412	0.028900	0.30090	0.0100000	40.000	772.00	10329	0.036084	703.45	663.11	4.6448	4.6448	0.79119	10329			
707.32	300.00	0.30040	0.028300	10615	9845.4	0.030400	0.29930	0.0100000	40.000	773.00	10375	0.040708	704.77	664.43	5.5934	5.5934	1.2333	10375			
708.64	300.00	0.29880	0.029100	10268	10856	0.027700	0.30070	0.0100000	40.000	774.00	10379	0.041115	706.10	665.75	6.5889	6.5889	-0.61987	10379			
709.97	300.00	0.30000	0.031800	9434.0	10712	0.028100	0.30100	0.0100000	40.000	775.00	10377	0.040909	707.42	667.07	-7.3133	-7.3133	-5.0063	10377			
711.29	300.00	0.30000	0.028300	10601	11037	0.027200	0.30020	0.0100000	40.000	776.00	10371	0.040351	708.74	668.39	-12.613	-12.613	-10.357	10371			
712.61	300.00	0.30060	0.028300	10622	10030	0.030000	0.30090	0.0100000	40.000	777.00	10330	0.036242	710.06	669.71	-17.287	-17.287	-15.134	10330			
713.93	300.00	0.29950	0.029200	10257	10215	0.029300	0.29930	0.0100000	40.000	778.00	10319	0.035087	711.38	671.04	-21.162	-21.162	-15.612	10319			
715.25	300.00	0.30030	0.028600	10500	10246	0.029300	0.30020	0.0100000	40.000	779.00	10289	0.032081	712.70	672.36	-17.294	-17.294	-12.612	10289			
716.57	300.00	0.29990	0.029200	10271	10159	0.029500	0.29970	0.0100000	40.000	780.00	10252	0.028404	714.03	673.68	-9.7042	-9.7042	-7.0669	10252			
717.90	300.00	0.30040	0.030900	9721.7	10863	0.027700	0.30090	0.0100000	40.000	781.00	10249	0.028121	715.35	675.00	2.3862	2.3862	-1.6914	10249			
719.22	300.00	0.29980	0.030300	9894.4	9797.4	0.030600	0.29980	0.0100000	40.000	782.00	10274	0.030635	716.67	676.32	10.439	10.439	0.67485	10274			
720.54	300.00	0.29940	0.028700	10432	10859	0.027700	0.30080	0.0100000	40.000	783.00	10293	0.032548	717.99	677.64	5.7154	5.7154	-0.17273	10293			
721.86	300.00	0.30080	0.028700	10481	10193	0.029500	0.30070	0.0100000	40.000	784.00	10299	0.033111	719.31	678.96	-5.4626	-5.4626	-3.6335	10299			
723.18	300.00	0.29940	0.029900	10013	9734.6	0.030900	0.30080	0.0100000	40.000	785.00	10275	0.030671	720.63	680.29	-13.942	-13.942	-7.7685	10275			
724.50	300.00	0.30000	0.029700	10101	10214	0.029400	0.30030	0.0100000	40.000	786.00	10248	0.027952	721.96	681.61	-14.918	-14.918	-9.4532	10248			
725.83	300.00	0.29950	0.028100	10658	9839.9	0.030600	0.30110	0.0100000	40.000	787.00	10227	0.025886	723.28	682.93	-10.236	-10.236	-6.5896	10227			
727.15	300.00	0.30040	0.030300	9914.2	10023	0.029900	0.29970	0.0100000	40.000	788.00	10224	0.025615	724.60	684.25	-2.7079	-2.7079	-1.8420	10224			
728.47	300.00	0.30070	0.031500	9546.0	9768.7	0.030700	0.29990	0.0100000	40.000	789.00	10219	0.025055	725.92	685.57	8.8556	8.8556	3.1636	10219			
729.79	300.00	0.29950	0.029000	10328	10197	0.029400	0.29980	0.0100000	40.000	790.00	10234	0.026572	727.24	686.89	9.7956	9.7956	6.4908	10234			
731.11	300.00	0.30080	0.028700	10481	10291	0.029200	0.30050	0.0100000	40.000	791.00	10281	0.031278	728.56	688.22	10.110	10.110	7.7050	10281			
732.43	300.00	0.30040	0.030200	9947.0	10467	0.028700	0.30040	0.0100000	40.000	792.00	10258	0.028997	729.89	689.54	6.4005	6.4005	7.1927	10258			
733.76	300.00	0.30030	0.030300	9910.9	10812	0.027700	0.29950	0.0100000	40.000	793.00	10273	0.030544	731.21	690.86	3.3629	3.3629	6.0292	10273			
735.08	300.00	0.29940	0.027900	10731	9963.3	0.030000	0.29890	0.0100000	40.000	794.00	10280	0.031181	732.53	692.18	6.2939	6.2939	5.7570	10280			
736.40	300.00	0.29940	0.031200	9596.2	10345	0.029000	0.30000	0.0100000	40.000	795.00	10292	0.032415	733.85	693.50	3.9782	3.9782	7.5125	10292			
737.72	300.00	0.30010	0.029100	10313	10142	0.029500	0.29920	0.0100000	40.000	796.00	10290	0.032234	735.17	694.82	8.7496	8.7496	10.476	10290			
739.04	300.00	0.29990	0.027800	10788	10604	0.028300	0.30010	0.0100000	40.000	797.00	10294	0.032655	736.49	696.15	15.178	15.178	12.102	10294			
740.36	300.00	0.30030	0.030400	9878.3	9973.4	0.030100	0.30020	0.0100000	40.000	798.00	10336	0.036861	737.82	697.47	18.179	18.179	12.182	10336			
741.68	300.00	0.30080	0.032000	9400.0	10098	0.029700	0.29990	0.0100000	40.000	799.00	10369	0.040161	739.14	698.79	14.424	14.424	9.6575	10369			
743.01	300.00	0.29890	0.030500	9800.0	10563	0.028400	0.30000	0.0100000	40.000	800.00	10373	0.040530	740.46	700.11	4.3768	4.3768	4.9972	10373			
744.33	300.00	0.29970	0.028900	10370	11144	0.027000	0.30090	0.0100000	40.000	801.00	10371	0.040381	741.78	701.43	-3.8702	-3.8702	-0.21235	10371			
745.65	300.00	0.30040	0.029800	10081	10385	0.028800	0.29910	0.0100000	40.000	802.00	10364	0.039652	743.10	702.75	-8.1235	-8.1235	-4.8210	10364			
746.97	300.00	0.29950	0.029700	10084	10121	0.029700	0.30060	0.0100000	40.000	803.00	10348	0.038035	744.42	704.07	-7.8692	-7.8692	-6.6889	10348			
748.29	300.00	0.29940	0.027600	10848	10993	0.027200	0.29900	0.0100000	40.000	804.00	10331	0.036319	745.74	705.40	-8.6192	-8.6192	-7.0367	10331			
749.61	300.00	0.30020	0.028600	10497	10451	0.028800	0.30100	0.0100000	40.000	805.00	10336	0.036831	747.07	706.72	-4.9625	-4.9625	-6.8665	10336			
750.94	300.00	0.29970	0.029400	10194	9696.8	0.031000	0.30060	0.0100000	40.000	806.00	10313	0.034540	748.39	708.04	-5.6091	-5.6091	-6.8281	10313			
752.26	300.00	0.29960	0.029500	10156	10302	0.029100	0.29980	0.0100000	40.000	807.00	10324	0.035635	749.71	709.36	-7.2725	-7.2725	-6.9962	10324			
753.58	300.00	0.30030	0.027000	11122	10720	0.027900	0.29910	0.0100000	40.000	808.00	10300	0.033199	751.03	710.68	-7.6774	-7.6774	-8.6267	10300			
754.90	300.00	0.30030	0.027400	10960	10714	0.028000	0.30000	0.0100000	40.000	809.00	10295	0.032681	752.35	712.00	-9.4593	-9.4593	-8.8211	10295			
756.22	300.00	0.30000	0.027500	10909	9845.9	0.030500	0.30030	0.0100000	40.000	810.00	10277	0.030928	753.67	713.33	-13.115	-13.115	-6.8725	10277			
757.54	300.00	0.29890	0.028400	10525	10166	0.029500	0.29990	0.0100000	40.000	811.00	10273	0.030500	755.00	714.65	-6.5813	-6.5813	-5.6228	10273			
758.86	300.00	0.30030	0.031400	9563.7	10139	0.029600	0.30010	0.0100000	40.000	812.00	10224	0.025597	756.32	715.97	2.4705	2.4705	-3.5684	10224			
760.19	300.00	0.30000	0.030400	9868.4	10128	0.029600	0.29980	0.0100000	40.000	813.00	10278	0.030985	757.64	717.29	-1.4287	-1.4287	-1.0028	10278			
761.51	300.00	0.29990	0.030500	9832.8	10453	0.028700	0.30000	0.0100000	40.000	814.00	10291	0.032323	758.96	718.61	0.81292	0.81292	1.7118	10291			
762.83	300.00	0.30060	0.029200	10295	10071	0.029700	0.29910	0.0100000	40.000	815.00	10230	0.026190	760.28	719.93	-0.28765	-0.28765	3.1001	10230			
764.15	300.00	0.30070	0.029300	10263	9865.1	0.030400	0.29990	0.0100000	40.000	816.00	10253	0.028533	761.60	721.26	6.9920	6.9920	4.7818	10253			
765.47	300.00	0.29950	0.028900	10363	10372	0.028800	0.29870	0.0100000	40.000	817.00	10295	0.032689	762.92	722.58	9.4120	9.4120	4.4750	10295			
766.79	300.00	0.29960	0.029200	10260	10094	0.029700	0.29980	0.0100000	40.000	818.00	10305	0.033708	764.25	723.90	6.9797	6.9797	4.2103	10305			
768.12	300.00	0.29960	0.028500	10512	9865.1	0.030400	0.29990	0.0100000	40.000	819.00	10266	0.029841	765.57	725.22	-0.72099	-0.72099	3.2034	10266			
769.44	300.00	0.30050	0.030700	9788.3	9730.5	0.030800	0.29970	0.0100000	40.000	820.00	10314	0.034583	766.89	726.54	-1.6113	-1.6113	1.7740	10314			
770.76	300.00	0.30000	0.029700	10101	10474	0.028700	0.30060	0.0100000	40.000	821.00	10286	0.031774	768.21	727.86	1.9577	1.9577	2.3665	10286			
772.08	300.00	0.30010	0.030700	9775.2	10118	0.029700	0.30050	0.0100000	40.000	822.00	10285	0.031674	769.53	729.19	2.2649	2.2649	4.6856	10285			
773.40	300.00	0.29990	0.029100	10306	11513	0.026100	0.30050	0.0100000	40.000	823.00	10294	0.032594	770.85	730.51	9.9424	9.9424	6.8273	10294			
774.72	300.00	0.30000	0.027000	11111	10401	0.028900	0.30060	0.0100000	40.000	824.00	10325	0.035675	772.18	731.83	10.874	10.874	8.0128	10325			
776.05	300.00	0.30080	0.030000	10027	9708.7	0.030900	0.30000	0.0100000	40.000	825.00	10331	0.036364	773.50	733.15	9.0970	9.0970	10.504	10331			
777.37	300.00	0.29930	0.029600	10111	10942	0.027500	0.30090	0.0100000	40.000	826.00	10338	0.036997	774.82	734.47	7.8851	7.8851	12.050	10338			
778.69	300.00	0.30120	0.027200	11074	10567	0.028400	0.30010	0.0100000	40.000	827.00	10347	0.037962	776.14	735.79	14.722	14.722	13.841	10347			
780.01	300.00	0.29980	0.028100	10669	10516	0.028500	0.29970	0.0100000	40.000	828.00	10369	0.040102	777.46	737.11	17.670	17.670	15.871	10369			
781.33	300.00	0.29960	0.029100	10296	9910.9	0.030300	0.30030	0.0100000	40.000	829.00	10413	0.044569	778.78	738.44	19.832	19.832	18.213	10413			
782.65	300.00	0.30060	0.025700	11697	11707	0.025600	0.29970	0.0100000	40.000	830.00	10422	0.045405	780.11	739.76	19.248	19.248	16.913	10422			
783.97	300.00	0.30000	0.029800	10067	9257.7	0.032600	0.30180	0.0100000	40.000	831.00	10452	0.048455	781.43	741.08	19.593	19.593	12.046	10452			
785.30	300.00	0.30050	0.029500	10186	10145	0.029600	0.30030	0.0100000	40.000	832.00	10476	0.050916	782.75	742.40	8.2214	8.2214	7.2192	10476			
786.62	300.00	0.30040	0.027200	11044	10331	0.029000	0.29960	0.0100000	40.000	833.00	10515	0.054800	784.07	743.72	-6.6658	-6.6658	3.0228	10515			
787.94	300.00	0.29900	0.028000	10679	10773	0.027800	0.29950	0.0100000	40.000	834.00	10444	0.047682	785.39	745.04	-4.3004	-4.3004	1.4719	10444			
789.26	300.00	0.29990	0.028900	10377	10597	0.028300	0.29990	0.0100000	40.000	835.00	10424	0.045654	786.71	746.37	-1.7342	-1.7342	1.7314	10424			
790.58	300.00	0.29980	0.027700	10823	10203	0.029500	0.30100	0.0100000	40.000	836.00	10494	0.052639	788.03	747.69	11.838	11.838	3.5037	10494			
791.90	300.00	0.29920	0.030800	9714.3	10067	0.029800	0.30000	0.0100000	40.000	837.00	10479	0.051172	789.36	749.01	9.5191	9.5191	3.2416	10479			
793.23	300.00	0.29970	0.029500	10159	10819	0.027700	0.29970	0.0100000	40.000	838.00	10495	0.052770	790.68	750.33	2.1956	2.1956	2.5359	10495			
794.55	300.00	0.29970	0.029300	10229	11029	0.027200	0.30000	0.0100000	40.000	839.00	10486	0.051899	792.00	751.65	-5.6110	-5.6110	0.17158	10486			
795.87	300.00	0.30010	0.029700	10104	10040	0.029800	0.29920	0.0100000	40.000	840.00	10505	0.053731	793.32	752.97	-5.2624	-5.2624	-0.77816	10505			
797.19	300.00	0.30050	0.030500	9852.5	10369	0.029000	0.30070	0.0100000	40.000	841.00	10437	0.046972	794.64	754.29	0.016626	0.016626	0.27636	10437			
798.51	300.00	0.30060	0.028300	10622	10989	0.027400	0.30110	0.0100000	40.000	842.00	10485	0.051745	795.96	755.62	4.7704	4.7704	1.3644	10485			
799.83	300.00	0.30020	0.030000	10007	10931	0.027500	0.30060	0.0100000	40.000	843.00	10496	0.052903	797.29	756.94	7.4682	7.4682	2.6979	10496			
801.16	300.00	0.30020	0.027800	10799	10023	0.030000	0.30070	0.0100000	40.000	844.00	10507	0.053928	798.61	758.26	-0.17083	-0.17083	4.1868	10507			
802.48	300.00	0.30000	0.028500	10526	9976.8	0.030200	0.30130	0.0100000	40.000	845.00	10476	0.050831	799.93	759.58	1.4051	1.4051	4.9956	10476			
803.80	300.00	0.30040	0.028200	10652	11171	0.026900	0.30050	0.0100000	40.000	846.00	10494	0.052668	801.25	760.90	7.4611	7.4611	4.1847	10494			
805.12	300.00	0.29940	0.028600	10469	10635	0.028200	0.29990	0.0100000	40.000	847.00	10512	0.054464	802.57	762.22	8.8144	8.8144	5.1291	10512			
806.44	300.00	0.29880	0.028700	10411	10901	0.027400	0.29870	0.0100000	40.000	848.00	10538	0.057057	803.89	763.55	3.4137	3.4137	5.1540	10538			
807.76	300.00	0.30050	0.028300	10618	10333	0.029100	0.30070	0.0100000	40.000	849.00	10512	0.054479	805.22	764.87	4.5513	4.5513	3.0731	10512			
809.09	300.00	0.29910	0.029300	10208	10295	0.029200	0.30060	0.0100000	40.000	850.00	10516	0.054923	806.54	766.19	1.5294	1.5294	-1.3956	10516			
810.41	300.00	0.30010	0.029500	10173	10292	0.029100	0.29950	0.0100000	40.000	851.00	10553	0.058548	807.86	767.51	-2.9436	-2.9436	-4.7734	10553			
811.73	300.00	0.29890	0.029000	10307	10257	0.029200	0.29950	0.0100000	40.000	852.00	10528	0.056037	809.18	768.83	-13.529	-13.529	-6.7155	10528			
813.05	300.00	0.30030	0.029400	10214	10388	0.028900	0.30020	0.0100000	40.000	853.00	10487	0.051972	810.50	770.15	-13.475	-13.475	-7.8858	10487			
814.37	300.00	0.29920	0.028000	10686	10546	0.028400	0.29950	0.0100000	40.000	854.00	10460	0.049244	811.82	771.48	-5.1592	-5.1592	-9.1486	10460			
815.69	300.00	0.29980	0.029800	10060	10125	0.029600	0.29970	0.0100000	40.000	855.00	10497	0.053012	813.14	772.80	-4.3218	-4.3218	-10.344	10497			
817.01	300.00	0.29950	0.028900	10363	10982	0.027200	0.29870	0.0100000	40.000	856.00	10488	0.052096	814.47	774.12	-9.2578	-9.2578	-11.327	10488			
818.34	300.00	0.30020	0.027800	10799	10580	0.028300	0.29940	0.0100000	40.000	857.00	10444	0.047680	815.79	775.44	-19.504	-19.504	-12.260	10444			
819.66	300.00	0.29990	0.031000	9674.2	10610	0.028200	0.29920	0.0100000	40.000	858.00	10425	0.045773	817.11	776.76	-18.394	-18.394	-10.380	10425			
820.98	300.00	0.30020	0.026900	11160	10280	0.029300	0.30120	0.0100000	40.000	859.00	10400	0.043246	818.43	778.08	-9.8228	-9.8228	-4.8903	10400			
822.30	300.00	0.30040	0.030000	10013	11122	0.027000	0.30030	0.0100000	40.000	860.00	10389	0.042122	819.75	779.40	5.0787	5.0787	3.4307	10389			
823.62	300.00	0.30040	0.027000	11126	10799	0.027900	0.30130	0.0100000	40.000	861.00	10398	0.042995	821.07	780.73	18.190	18.190	11.706	10398			
824.94	300.00	0.29900	0.028400	10528	9843.1	0.030600	0.30120	0.0100000	40.000	862.00	10460	0.049265	822.40	782.05	22.101	22.101	16.990	10460			
826.27	300.00	0.30000	0.029200	10274	10138	0.029700	0.30110	0.0100000	40.000	863.00	10485	0.051732	823.72	783.37	22.984	22.984	17.920	10485			
827.59	300.00	0.29910	0.028200	10606	10360	0.028900	0.29940	0.0100000	40.000	864.00	10491	0.052403	825.04	784.69	16.595	16.595	15.236	10491			
828.91	300.00	0.29950	0.030900	9692.6	10812	0.027700	0.29950	0.0100000	40.000	865.00	10534	0.056662	826.36	786.01	9.7290	9.7290	11.729	10534			
830.23	300.00	0.29960	0.027700	10816	9785.0	0.030700	0.30040	0.0100000	40.000	866.00	10545	0.057800	827.68	787.33	4.7723	4.7723	9.2423	10545			
831.55	300.00	0.30020	0.027900	10760	10247	0.029200	0.29920	0.0100000	40.000	867.00	10522	0.055483	829.00	788.66	4.5629	4.5629	7.1724	10522			
832.87	300.00	0.29940	0.028100	10655	10235	0.029300	0.29990	0.0100000	40.000	868.00	10529	0.056156	830.33	789.98	10.553	10.553	3.8001	10529			
834.19	300.00	0.29900	0.028300	10565	10372	0.029000	0.30080	0.0100000	40.000	869.00	10572	0.060508	831.65	791.30	6.2449	6.2449	-0.28508	10572			
835.52	300.00	0.29930	0.030500	9813.1	10098	0.029600	0.29890	0.0100000	40.000	870.00	10590	0.062282	832.97	792.62	-7.1324	-7.1324	-2.9522	10590			
836.84	300.00	0.30030	0.029200	10284	10477	0.028700	0.30070	0.0100000	40.000	871.00	10533	0.056559	834.29	793.94	-15.654	-15.654	-4.3320	10533			
838.16	300.00	0.29990	0.030300	9897.7	11605	0.025800	0.29940	0.0100000	40.000	872.00	10501	0.053403	835.61	795.26	-8.7726	-8.7726	-3.4181	10501			
839.48	300.00	0.29930	0.028400	10539	10773	0.027800	0.29950	0.0100000	40.000	873.00	10513	0.054571	836.93	796.59	3.6539	3.6539	1.1736	10513			
840.80	300.00	0.30020	0.027900	10760	10528	0.028600	0.30110	0.0100000	40.000	874.00	10542	0.057460	838.25	797.91	10.814	10.814	8.2586	10542			
842.12	300.00	0.30020	0.027000	11119	11437	0.026300	0.30080	0.0100000	40.000	875.00	10537	0.056952	839.58	799.23	15.826	15.826	14.658	10537			
843.45	300.00	0.29830	0.030300	9844.9	10363	0.028900	0.29950	0.0100000	40.000	876.00	10561	0.059381	840.90	800.55	19.771	19.771	16.592	10561			
844.77	300.00	0.30090	0.028700	10484	10497	0.028600	0.30020	0.0100000	40.000	877.00	10608	0.064102	842.22	801.87	23.223	23.223	14.913	10608			
846.09	300.00	0.29950	0.028800	10399	10720	0.027900	0.29910	0.0100000	40.000	878.00	10637	0.066991	843.54	803.19	13.325	13.325	11.606	10637			
847.41	300.00	0.30070	0.027100	11096	11521	0.026100	0.30070	0.0100000	40.000	879.00	10652	0.068541	844.86	804.51	2.4194	2.4194	5.1823	10652			
848.73	300.00	0.29990	0.028000	10711	10651	0.028100	0.29930	0.0100000	40.000	880.00	10627	0.065995	846.18	805.84	-0.70753	-0.70753	-3.5112	10627			
850.05	300.00	0.29970	0.027200	11018	9924.1	0.030300	0.30070	0.0100000	40.000	881.00	10629	0.066204	847.51	807.16	-12.349	-12.349	-10.841	10629			
851.38	300.00	0.30050	0.028100	10694	10139	0.029600	0.30010	0.0100000	40.000	882.00	10644	0.067691	848.83	808.48	-20.244	-20.244	-17.058	10644			
852.70	300.00	0.29900	0.029200	10240	10088	0.029600	0.29860	0.0100000	40.000	883.00	10562	0.059507	850.15	809.80	-23.324	-23.324	-20.099	10562			
854.02	300.00	0.30060	0.028300	10622	10743	0.028000	0.30080	0.0100000	40.000	884.00	10526	0.055925	851.47	811.12	-28.665	-28.665	-19.191	10526			
855.34	300.00	0.29920	0.027600	10841	10253	0.029200	0.29940	0.0100000	40.000	885.00	10533	0.056627	852.79	812.44	-15.911	-15.911	-16.422	10533			
856.66	300.00	0.30030	0.029000	10355	11321	0.026500	0.30000	0.0100000	40.000	886.00	10469	0.050130	854.11	813.77	-7.8097	-7.8097	-12.669	10469			
857.98	300.00	0.29930	0.028800	10392	10773	0.027800	0.29950	0.0100000	40.000	887.00	10486	0.051858	855.44	815.09	-6.4030	-6.4030	-9.0349	10486			
859.30	300.00	0.29970	0.029800	10057	10851	0.027600	0.29950	0.0100000	40.000	888.00	10499	0.053133	856.76	816.41	-4.5547	-4.5547	-8.1930	10499			
860.63	300.00	0.29930	0.029700	10077	10560	0.028400	0.29990	0.0100000	40.000	889.00	10476	0.050882	858.08	817.73	-10.496	-10.496	-7.2753	10476			
861.95	300.00	0.29970	0.026300	11395	9839.3	0.030500	0.30010	0.0100000	40.000	890.00	10443	0.047600	859.40	819.05	-11.701	-11.701	-3.5258	10443			
863.27	300.00	0.30020	0.029300	10246	10142	0.029600	0.30020	0.0100000	40.000	891.00	10444	0.047668	860.72	820.37	-3.2210	-3.2210	0.54986	10444			
864.59	300.00	0.30030	0.027500	10920	10789	0.027900	0.30100	0.0100000	40.000	892.00	10437	0.046984	862.04	821.70	12.344	12.344	6.0192	10437			
865.91	300.00	0.30100	0.029100	10344	9891.4	0.030400	0.30070	0.0100000	40.000	893.00	10458	0.049055	863.36	823.02	15.824	15.824	9.7583	10458			
867.23	300.00	0.30200	0.029700	10168	10023	0.029900	0.29970	0.0100000	40.000	894.00	10518	0.055088	864.69	824.34	16.850	16.850	10.348	10518			
868.56	300.00	0.30080	0.026900	11182	10675	0.028000	0.29890	0.0100000	40.000	895.00	10508	0.054104	866.01	825.66	6.9944	6.9944	7.3875	10508			
869.88	300.00	0.29970	0.029400	10194	10077	0.029800	0.30030	0.0100000	40.000	896.00	10523	0.055628	867.33	826.98	-0.27263	-0.27263	4.0631	10523			
871.20	300.00	0.30020	0.029200	10281	10725	0.028000	0.30030	0.0100000	40.000	897.00	10501	0.053421	868.65	828.30	-2.4578	-2.4578	2.1262	10501			
872.52	300.00	0.29930	0.028000	10689	10763	0.027900	0.30030	0.0100000	40.000	898.00	10520	0.055249	869.97	829.62	-0.79829	-0.79829	3.3301	10520			
873.84	300.00	0.29920	0.028300	10572	10249	0.029300	0.30030	0.0100000	40.000	899.00	10494	0.052664	871.29	830.95	7.1653	7.1653	6.7870	10494			
875.16	300.00	0.29880	0.029200	10233	10834	0.027700	0.30010	0.0100000	40.000	900.00	10522	0.055477	872.62	832.27	13.014	13.014	9.5049	10522			
876.49	300.00	0.30010	0.030900	9712.0	10665	0.028100	0.29970	0.0100000	40.000	901.00	10548	0.058056	873.94	833.59	17.012	17.012	11.679	10548			
877.81	300.00	0.29910	0.028100	10644	9781.0	0.030600	0.29930	0.0100000	40.000	902.00	10579	0.061180	875.26	834.91	11.132	11.132	12.146	10579			
879.13	300.00	0.30040	0.029800	10081	10572	0.028500	0.30130	0.0100000	40.000	903.00	10578	0.061090	876.58	836.23	10.070	10.070	12.061	10578			
880.45	300.00	0.30040	0.031200	9628.2	11351	0.026500	0.30080	0.0100000	40.000	904.00	10580	0.061340	877.90	837.55	9.5043	9.5043	10.180	10580			
881.77	300.00	0.29970	0.029400	10194	10537	0.028500	0.30030	0.0100000	40.000	905.00	10613	0.064652	879.22	838.88	12.588	12.588	8.5270	10613			
883.09	300.00	0.29980	0.028000	10707	10572	0.028300	0.29920	0.0100000	40.000	906.00	10624	0.065699	880.55	840.20	7.6040	7.6040	6.7846	10624			
884.41	300.00	0.30020	0.025800	11636	10859	0.027600	0.29970	0.0100000	40.000	907.00	10639	0.067254	881.87	841.52	2.8686	2.8686	5.3442	10639			
885.74	300.00	0.30080	0.029600	10162	11156	0.026900	0.30010	0.0100000	40.000	908.00	10618	0.065079	883.19	842.84	1.3581	1.3581	3.8257	10618			
887.06	300.00	0.29970	0.028200	10628	10310	0.029000	0.29900	0.0100000	40.000	909.00	10635	0.066864	884.51	844.16	2.3024	2.3024	3.9044	10635			
888.38	300.00	0.29960	0.030500	9823.0	11149	0.026900	0.29990	0.0100000	40.000	910.00	10635	0.066794	885.83	845.48	4.9956	4.9956	6.0566	10635			
889.70	300.00	0.29870	0.029300	10195	10379	0.029000	0.30100	0.0100000	40.000	911.00	10646	0.067923	887.15	846.80	7.9973	7.9973	6.9087	10646			
891.02	300.00	0.30060	0.026100	11517	10796	0.027900	0.30120	0.0100000	40.000	912.00	10645	0.067861	888.47	848.13	13.629	13.629	5.2652	10645			
892.34	300.00	0.30110	0.026900	11193	10770	0.027800	0.29940	0.0100000	40.000	913.00	10683	0.071631	889.80	849.45	5.6185	5.6185	1.0760	10683			
893.67	300.00	0.30010	0.028700	10456	9943.7	0.030200	0.30030	0.0100000	40.000	914.00	10706	0.073975	891.12	850.77	-5.9149	-5.9149	-4.3049	10706			
894.99	300.00	0.29980	0.028000	10707	10717	0.027900	0.29900	0.0100000	40.000	915.00	10653	0.068590	892.44	852.09	-15.950	-15.950	-9.6686	10653			
896.31	300.00	0.30170	0.027000	11174	10894	0.027400	0.29850	0.0100000	40.000	916.00	10621	0.065460	893.76	853.41	-18.907	-18.907	-12.747	10621			
897.63	300.00	0.30030	0.029500	10180	10403	0.028800	0.29960	0.0100000	40.000	917.00	10620	0.065316	895.08	854.73	-13.189	-13.189	-13.636	10620			
898.95	300.00	0.29940	0.029700	10081	10270	0.029300	0.30090	0.0100000	40.000	918.00	10598	0.063082	896.40	856.06	-9.7745	-9.7745	-10.847	10598			
900.27	300.00	0.29940	0.028600	10469	11137	0.027000	0.30070	0.0100000	40.000	919.00	10577	0.061039	897.72	857.38	-10.359	-10.359	-6.6735	10577			
901.59	300.00	0.29980	0.028600	10483	10235	0.029400	0.30090	0.0100000	40.000	920.00	10578	0.061122	899.05	858.70	-2.0077	-2.0077	-3.8226	10578			
902.91	300.00	0.29910	0.026900	11119	11070	0.027100	0.30000	0.0100000	40.000	921.00	10561	0.059432	900.37	860.02	1.9631	1.9631	-1.9390	10561			
904.24	300.00	0.30080	0.026600	11308	10652	0.028200	0.30040	0.0100000	40.000	922.00	10593	0.062555	901.69	861.34	1.0647	1.0647	1.0096	10593			
905.56	300.00	0.29840	0.028500	10470	10570	0.028400	0.30020	0.0100000	40.000	923.00	10583	0.061624	903.01	862.66	-0.35620	-0.35620	2.3802	10583			
906.88	300.00	0.30020	0.028600	10497	11063	0.027200	0.30090	0.0100000	40.000	924.00	10574	0.060732	904.33	863.98	4.3843	4.3843	4.1535	10574			
908.20	300.00	0.30000	0.027400	10949	10224	0.029500	0.30160	0.0100000	40.000	925.00	10568	0.060108	905.65	865.30	4.8450	4.8450	7.2071	10568			
909.52	300.00	0.30000	0.028500	10526	9881.6	0.030400	0.30040	0.0100000	40.000	926.00	10629	0.066218	906.97	866.62	10.830	10.830	8.9279	10629			
910.84	300.00	0.29940	0.027100	11048	10542	0.028400	0.29940	0.0100000	40.000	927.00	10588	0.062091	908.29	867.94	16.333	16.333	11.461	10588			
912.16	300.00	0.30040	0.028900	10394	10391	0.028900	0.30030	0.0100000	40.000	928.00	10636	0.066915	909.61	869.27	8.2477	8.2477	12.178	10636			
913.48	300.00	0.29950	0.025400	11791	10729	0.028000	0.30040	0.0100000	40.000	929.00	10673	0.070581	910.94	870.59	17.051	17.051	11.350	10673			
914.80	300.00	0.29960	0.026600	11263	10328	0.029000	0.29950	0.0100000	40.000	930.00	10641	0.067437	912.26	871.91	8.4312	8.4312	9.6097	10641			
916.13	300.00	0.29970	0.027600	10859	10795	0.027800	0.30010	0.0100000	40.000	931.00	10698	0.073127	913.58	873.23	6.6887	6.6887	7.6064	10698			
917.45	300.00	0.29940	0.027100	11048	11033	0.027200	0.30010	0.0100000	40.000	932.00	10679	0.071229	914.90	874.55	7.6303	7.6303	5.3691	10679			
918.77	300.00	0.30100	0.028100	10712	10601	0.028300	0.30000	0.0100000	40.000	933.00	10698	0.073117	916.22	875.87	-1.7688	-1.7688	6.8382	10698			
920.09	300.00	0.29960	0.028000	10700	10583	0.028300	0.29950	0.0100000	40.000	934.00	10692	0.072498	917.54	877.19	5.8643	5.8643	9.7743	10692			
921.41	300.00	0.30070	0.027700	10856	9813.1	0.030500	0.29930	0.0100000	40.000	935.00	10680	0.071320	918.86	878.51	15.776	15.776	12.314	10680			
922.73	300.00	0.30010	0.028600	10493	11996	0.024900	0.29870	0.0100000	40.000	936.00	10727	0.076013	920.18	879.83	21.369	21.369	14.978	10727			
924.05	300.00	0.29930	0.028600	10465	10030	0.029900	0.29990	0.0100000	40.000	937.00	10784	0.081813	921.50	881.16	20.330	20.330	15.805	10784			
925.37	300.00	0.30100	0.029800	10101	11413	0.026400	0.30130	0.0100000	40.000	938.00	10780	0.081411	922.82	882.48	11.553	11.553	15.440	10780			
926.69	300.00	0.29910	0.028100	10644	11037	0.027100	0.29910	0.0100000	40.000	939.00	10787	0.082091	924.15	883.80	9.9984	9.9984	13.389	10787			
928.01	300.00	0.29990	0.028100	10673	10479	0.028600	0.29970	0.0100000	40.000	940.00	10802	0.083528	925.47	885.12	13.951	13.951	10.119	10802			
929.34	300.00	0.29870	0.027300	10941	11426	0.026300	0.30050	0.0100000	40.000	941.00	10840	0.087379	926.79	886.44	11.115	11.115	7.9123	10840			
930.66	300.00	0.29990	0.030400	9865.1	10673	0.028100	0.29990	0.0100000	40.000	942.00	10846	0.088010	928.11	887.76	3.9759	3.9759	7.6023	10846			
931.98	300.00	0.29940	0.027600	10848	11048	0.027200	0.30050	0.0100000	40.000	943.00	10838	0.087214	929.43	889.08	0.52153	0.52153	4.0892	10838			
933.30	300.00	0.29950	0.025800	11609	10441	0.028800	0.30070	0.0100000	40.000	944.00	10829	0.086245	930.75	890.40	8.4487	8.4487	-0.57747	10829			
934.62	300.00	0.29920	0.027900	10724	10816	0.027700	0.29960	0.0100000	40.000	945.00	10852	0.088607	932.07	891.72	-3.6150	-3.6150	-5.4442	10852			
935.94	300.00	0.30000	0.028400	10563	11206	0.026700	0.29920	0.0100000	40.000	946.00	10895	0.092912	933.39	893.04	-12.218	-12.218	-9.7979	10895			
937.26	300.00	0.30190	0.027400	11018	11096	0.027100	0.30070	0.0100000	40.000	947.00	10781	0.081485	934.71	894.37	-20.358	-20.358	-12.624	10781			
938.58	300.00	0.29940	0.026500	11298	10458	0.028600	0.29910	0.0100000	40.000	948.00	10783	0.081710	936.04	895.69	-21.247	-21.247	-14.378	10783			
939.90	300.00	0.29930	0.027800	10766	10533	0.028500	0.30020	0.0100000	40.000	949.00	10774	0.080718	937.36	897.01	-5.6810	-5.6810	-13.633	10774			
941.23	300.00	0.29890	0.024400	12250	11029	0.027200	0.30000	0.0100000	40.000	950.00	10759	0.079216	938.68	898.33	-12.386	-12.386	-9.8000	10759			
942.55	300.00	0.30090	0.029500	10200	11134	0.026900	0.29950	0.0100000	40.000	951.00	10756	0.078968	940.00	899.65	-8.4913	-8.4913	-4.6282	10756			
943.87	300.00	0.30040	0.028000	10729	10927	0.027400	0.29940	0.0100000	40.000	952.00	10710	0.074378	941.32	900.97	-1.1948	-1.1948	-0.99993	10710			
945.19	300.00	0.29920	0.026000	11508	10866	0.027700	0.30100	0.0100000	40.000	953.00	10742	0.077510	942.64	902.29	4.6119	4.6119	3.6038	10742			
946.51	300.00	0.29990	0.028900	10377	10398	0.028900	0.30050	0.0100000	40.000	954.00	10758	0.079152	943.96	903.61	12.460	12.460	5.5092	10758			
947.83	300.00	0.30060	0.027100	11092	11077	0.027100	0.30020	0.0100000	40.000	955.00	10763	0.079636	945.28	904.94	10.633	10.633	4.4463	10763			
949.15	300.00	0.29900	0.028300	10565	10714	0.028000	0.30000	0.0100000	40.000	956.00	10782	0.081571	946.60	906.26	1.0357	1.0357	1.1736	10782			
950.47	300.00	0.29980	0.026600	11271	9603.8	0.031300	0.30060	0.0100000	40.000	957.00	10800	0.083346	947.93	907.58	-6.5097	-6.5097	-2.7162	10800			
951.79	300.00	0.29990	0.027000	11107	10077	0.029800	0.30030	0.0100000	40.000	958.00	10746	0.077984	949.25	908.90	-11.751	-11.751	-4.7851	10746			
953.12	300.00	0.29970	0.028800	10406	11205	0.026800	0.30030	0.0100000	40.000	959.00	10738	0.077117	950.57	910.22	-6.9889	-6.9889	-6.1560	10738			
954.44	300.00	0.29920	0.027200	11000	10722	0.028100	0.30130	0.0100000	40.000	960.00	10735	0.076899	951.89	911.54	0.28878	0.28878	-6.5670	10735			
955.76	300.00	0.29990	0.026600	11274	10427	0.028800	0.30030	0.0100000	40.000	961.00	10759	0.079257	953.21	912.86	-5.8191	-5.8191	-4.3660	10759			
957.08	300.00	0.30000	0.025700	11673	10465	0.028600	0.29930	0.0100000	40.000	962.00	10738	0.077105	954.53	914.18	-8.5646	-8.5646	-1.8487	10738			
958.40	300.00	0.30120	0.030200	9973.5	11328	0.026500	0.30020	0.0100000	40.000	963.00	10698	0.073158	955.85	915.50	-0.74629	-0.74629	0.87484	10698			
959.72	300.00	0.29950	0.028700	10436	11392	0.026300	0.29960	0.0100000	40.000	964.00	10709	0.074274	957.17	916.83	5.5978	5.5978	4.4855	10709			
961.04	300.00	0.30050	0.028600	10507	10542	0.028400	0.29940	0.0100000	40.000	965.00	10768	0.080179	958.49	918.15	13.906	13.906	8.2354	10768			
962.36	300.00	0.30040	0.027000	11126	11221	0.026700	0.29960	0.0100000	40.000	966.00	10740	0.077304	959.82	919.47	12.234	12.234	9.8465	10740			
963.68	300.00	0.29920	0.028900	10353	11578	0.025800	0.29870	0.0100000	40.000	967.00	10775	0.080856	961.14	920.79	10.185	10.185	7.8017	10775			
965.01	300.00	0.30020	0.027200	11037	9973.4	0.030100	0.30020	0.0100000	40.000	968.00	10787	0.082042	962.46	922.11	7.3089	7.3089	5.5537	10787			
966.33	300.00	0.30050	0.027200	11048	10276	0.029300	0.30110	0.0100000	40.000	969.00	10812	0.084559	963.78	923.43	-4.6263	-4.6263	5.8010	10812			
967.65	300.00	0.29930	0.024200	12368	10488	0.028700	0.30100	0.0100000	40.000	970.00	10769	0.080296	965.10	924.75	2.6668	2.6668	9.4645	10769			
968.97	300.00	0.29890	0.028400	10525	11523	0.026000	0.29960	0.0100000	40.000	971.00	10753	0.078663	966.42	926.07	13.471	13.471	11.238	10753			
970.29	300.00	0.30020	0.028000	10721	10683	0.028100	0.30020	0.0100000	40.000	972.00	10834	0.086757	967.74	927.40	28.503	28.503	11.193	10834			
971.61	300.00	0.29970	0.027100	11059	10101	0.029800	0.30100	0.0100000	40.000	973.00	10869	0.090257	969.06	928.72	16.175	16.175	7.5999	10869			
972.93	300.00	0.29930	0.029100	10285	11100	0.027000	0.29970	0.0100000	40.000	974.00	10900	0.093389	970.39	930.04	-4.8489	-4.8489	-0.076591	10900			
974.26	300.00	0.29910	0.027700	10798	11634	0.025700	0.29900	0.0100000	40.000	975.00	10827	0.086066	971.71	931.36	-15.300	-15.300	-7.8630	10827			
975.58	300.00	0.29970	0.028700	10443	10476	0.028600	0.29960	0.0100000	40.000	976.00	10823	0.085639	973.03	932.68	-24.912	-24.912	-11.167	10823			
976.90	300.00	0.30050	0.026600	11297	11458	0.026200	0.30020	0.0100000	40.000	977.00	10806	0.083993	974.35	934.00	-10.429	-10.429	-7.9693	10806			
978.22	300.00	0.29980	0.027800	10784	9852.0	0.030400	0.29950	0.0100000	40.000	978.00	10746	0.077919	975.67	935.32	-0.34476	-0.34476	-2.0516	10746			
979.54	300.00	0.30050	0.026000	11558	10604	0.028300	0.30010	0.0100000	40.000	979.00	10796	0.083016	976.99	936.64	11.139	11.139	3.7438	10796			
980.86	300.00	0.29980	0.026300	11399	10313	0.029100	0.30010	0.0100000	40.000	980.00	10825	0.085899	978.31	937.96	14.289	14.289	6.8168	10825			
982.18	300.00	0.30110	0.028200	10677	10381	0.028900	0.30000	0.0100000	40.000	981.00	10840	0.087384	979.63	939.29	4.0646	4.0646	8.5697	10840			
983.50	300.00	0.29990	0.025100	11948	12121	0.024700	0.29940	0.0100000	40.000	982.00	10818	0.085202	980.95	940.61	4.9359	4.9359	9.0908	10818			
984.82	300.00	0.30060	0.026700	11258	11198	0.026800	0.30010	0.0100000	40.000	983.00	10827	0.086058	982.28	941.93	8.4198	8.4198	8.0917	10827			
986.15	300.00	0.30080	0.027700	10859	11984	0.025000	0.29960	0.0100000	40.000	984.00	10864	0.089833	983.60	943.25	13.745	13.745	6.0822	10864			
987.47	300.00	0.29970	0.028700	10443	9858.6	0.030400	0.29970	0.0100000	40.000	985.00	10873	0.090648	984.92	944.57	9.2929	9.2929	5.0875	10873			
988.79	300.00	0.29870	0.026800	11146	10453	0.028700	0.30000	0.0100000	40.000	986.00	10886	0.092016	986.24	945.89	-5.9828	-5.9828	4.8919	10886			
990.11	300.00	0.29990	0.025300	11854	10876	0.027500	0.29910	0.0100000	40.000	987.00	10877	0.091123	987.56	947.21	-0.037631	-0.037631	5.3194	10877			
991.43	300.00	0.29950	0.027000	11093	10306	0.029100	0.29990	0.0100000	40.000	988.00	10823	0.085631	988.88	948.53	7.4417	7.4417	9.5835	10823			
992.75	300.00	0.30000	0.026900	11152	11041	0.027100	0.29920	0.0100000	40.000	989.00	10904	0.093815	990.20	949.85	15.883	15.883	13.327	10904			
994.07	300.00	0.30050	0.026100	11513	10880	0.027500	0.29920	0.0100000	40.000	990.00	10922	0.095600	991.52	951.18	30.614	30.614	13.190	10922			
995.39	300.00	0.29920	0.029000	10317	10799	0.027800	0.30020	0.0100000	40.000	991.00	10933	0.096663	992.84	952.50	12.734	12.734	8.2396	10933			
996.71	300.00	0.29990	0.027700	10827	11066	0.027100	0.29990	0.0100000	40.000	992.00	11011	0.10449	994.17	953.82	-0.72287	-0.72287	1.1147	11011			
998.04	300.00	0.30090	0.026300	11441	10862	0.027600	0.29980	0.0100000	40.000	993.00	10944	0.097807	995.49	955.14	-17.310	-17.310	-5.8666	10944			
999.36	300.00	0.30010	0.027000	11115	10891	0.027500	0.29950	0.0100000	40.000	994.00	10911	0.094549	996.81	956.46	-19.742	-19.742	-7.3227	10911			
1000.7	300.00	0.29970	0.028600	10479	11271	0.026600	0.29980	0.0100000	40.000	995.00	10868	0.090166	998.13	957.78	-4.2928	-4.2928	-4.9570	10868			
1002.0	300.00	0.29990	0.028200	10635	11921	0.025200	0.30040	0.0100000	40.000	996.00	10918	0.095235	999.45	959.10	5.4534	5.4534	-1.2371	10918			
1003.3	300.00	0.29860	0.026300	11354	10289	0.029100	0.29940	0.0100000	40.000	997.00	10912	0.094619	1000.8	960.42	11.106	11.106	2.9441	10912			
1004.6	300.00	0.29990	0.028300	10597	10308	0.029200	0.30100	0.0100000	40.000	998.00	10925	0.095936	1002.1	961.74	1.2897	1.2897	3.0580	10925			
1006.0	300.00	0.30020	0.029400	10211	11565	0.026000	0.30070	0.0100000	40.000	999.00	10938	0.097175	1003.4	963.07	1.1645	1.1645	2.0688	10938			
1007.3	300.00	0.30030	0.027000	11122	10978	0.027200	0.29860	0.0100000	40.000	1000.0	10914	0.094812	1004.7	964.39	-3.7233	-3.7233	0.075310	10914			
1008.6	300.00	0.30060	0.027200	11051	10535	0.028400	0.29920	0.0100000	40.000	1001.0	10925	0.095953	1006.1	965.71	0.50738	0.50738	-0.72948	10925			
1009.9	300.00	0.30070	0.029000	10369	12020	0.025000	0.30050	0.0100000	40.000	1002.0	10907	0.094079	1007.4	967.03	1.1383	1.1383	-1.7913	10907			
1011.2	300.00	0.29970	0.028700	10443	10721	0.028000	0.30020	0.0100000	40.000	1003.0	10945	0.097878	1008.7	968.35	-2.7343	-2.7343	-3.6809	10945			
1012.6	300.00	0.30040	0.025800	11643	10516	0.028500	0.29970	0.0100000	40.000	1004.0	10912	0.094604	1010.0	969.67	-4.1448	-4.1448	-5.5845	10912			
1013.9	300.00	0.29960	0.028500	10512	11066	0.027100	0.29990	0.0100000	40.000	1005.0	10905	0.093879	1011.3	970.99	-13.171	-13.171	-5.2216	10905			
1015.2	300.00	0.30020	0.028100	10683	10920	0.027400	0.29920	0.0100000	40.000	1006.0	10899	0.093332	1012.7	972.31	-9.0110	-9.0110	-3.4445	10899			
1016.5	300.00	0.29940	0.024700	12121	10324	0.029000	0.29940	0.0100000	40.000	1007.0	10864	0.089787	1014.0	973.63	2.9530	2.9530	0.34416	10864			
1017.9	300.00	0.29930	0.029100	10285	11152	0.027000	0.30110	0.0100000	40.000	1008.0	10873	0.090679	1015.3	974.96	6.1513	6.1513	6.7850	10873			
1019.2	300.00	0.29970	0.027600	10859	10565	0.028300	0.29900	0.0100000	40.000	1009.0	10938	0.097162	1016.6	976.28	14.798	14.798	9.7280	10938			
1020.5	300.00	0.30170	0.026100	11559	10546	0.028400	0.29950	0.0100000	40.000	1010.0	10903	0.093720	1017.9	977.60	19.033	19.033	10.004	10903			
1021.8	300.00	0.29900	0.029100	10275	11119	0.026900	0.29910	0.0100000	40.000	1011.0	10947	0.098071	1019.3	978.92	5.7042	5.7042	8.0119	10947			
1023.1	300.00	0.30030	0.025900	11595	10406	0.028800	0.29970	0.0100000	40.000	1012.0	10994	0.10284	1020.6	980.24	4.3338	4.3338	5.3694	10994			
1024.5	300.00	0.30170	0.028100	10737	11862	0.025300	0.30010	0.0100000	40.000	1013.0	10930	0.096383	1021.9	981.56	-3.8099	-3.8099	3.4575	10930			
1025.8	300.00	0.30020	0.026600	11286	10177	0.029400	0.29920	0.0100000	40.000	1014.0	10940	0.097435	1023.2	982.88	1.5858	1.5858	4.5819	10940			
1027.1	300.00	0.30000	0.027300	10989	10739	0.028000	0.30070	0.0100000	40.000	1015.0	10948	0.098247	1024.6	984.20	9.4734	9.4734	5.6728	10948			
1028.4	300.00	0.30010	0.027200	11033	11156	0.026900	0.30010	0.0100000	40.000	1016.0	10995	0.10295	1025.9	985.53	11.326	11.326	7.5112	10995			
1029.7	300.00	0.29990	0.027600	10866	11178	0.026900	0.30070	0.0100000	40.000	1017.0	10965	0.099903	1027.2	986.85	9.7884	9.7884	9.2371	10965			
1031.1	300.00	0.29990	0.026500	11317	10476	0.028600	0.29960	0.0100000	40.000	1018.0	11007	0.10412	1028.5	988.17	5.3820	5.3820	8.8918	11007			
1032.4	300.00	0.29870	0.027400	10901	11665	0.025700	0.29980	0.0100000	40.000	1019.0	11007	0.10415	1029.8	989.49	10.216	10.216	9.0980	11007			
1033.7	300.00	0.29930	0.024900	12020	10845	0.027700	0.30040	0.0100000	40.000	1020.0	11010	0.10440	1031.2	990.81	7.7465	7.7465	7.8966	11010			
1035.0	300.00	0.30020	0.027200	11037	11889	0.025200	0.29960	0.0100000	40.000	1021.0	11031	0.10653	1032.5	992.13	12.357	12.357	7.3511	11031			
1036.3	300.00	0.29990	0.027200	11026	11533	0.025900	0.29870	0.0100000	40.000	1022.0	11046	0.10806	1033.8	993.45	3.7818	3.7818	6.7193	11046			
1037.7	300.00	0.29970	0.028500	10516	10669	0.028100	0.29980	0.0100000	40.000	1023.0	11071	0.11051	1035.1	994.77	2.6543	2.6543	7.6115	11071			
1039.0	300.00	0.29950	0.026500	11302	10942	0.027400	0.29980	0.0100000	40.000	1024.0	11015	0.10491	1036.4	996.09	7.0565	7.0565	7.5606	11015			
1040.3	300.00	0.29970	0.027200	11018	10686	0.028000	0.29920	0.0100000	40.000	1025.0	11064	0.10986	1037.8	997.42	12.208	12.208	6.4698	11064			
1041.6	300.00	0.30070	0.028400	10588	12052	0.025000	0.30130	0.0100000	40.000	1026.0	11096	0.11306	1039.1	998.74	12.103	12.103	2.3410	11096			
1043.0	300.00	0.30080	0.026600	11308	10281	0.029200	0.30020	0.0100000	40.000	1027.0	11111	0.11453	1040.4	1000.1	-1.6723	-1.6723	-3.7304	11111			
1044.3	300.00	0.30090	0.030000	10030	11206	0.026700	0.29920	0.0100000	40.000	1028.0	11071	0.11060	1041.7	1001.4	-17.990	-17.990	-10.221	11071			
1045.6	300.00	0.30040	0.029200	10288	11160	0.026900	0.30020	0.0100000	40.000	1029.0	11065	0.10998	1043.1	1002.7	-23.300	-23.300	-18.194	11065			
1046.9	300.00	0.30000	0.028300	10601	10616	0.028400	0.30150	0.0100000	40.000	1030.0	11000	0.10341	1044.4	1004.0	-20.244	-20.244	-21.704	11000			
1048.2	300.00	0.29990	0.027600	10866	10993	0.027200	0.29900	0.0100000	40.000	1031.0	10993	0.10268	1045.7	1005.3	-27.766	-27.766	-20.630	10993			
1049.6	300.00	0.29900	0.028500	10491	11439	0.026200	0.29970	0.0100000	40.000	1032.0	10974	0.10083	1047.0	1006.7	-19.220	-19.220	-16.976	10974			
1050.9	300.00	0.29890	0.027600	10830	10920	0.027400	0.29920	0.0100000	40.000	1033.0	10895	0.092867	1048.3	1008.0	-12.621	-12.621	-13.777	10895			
1052.2	300.00	0.30000	0.027700	10830	10689	0.028000	0.29930	0.0100000	40.000	1034.0	10922	0.095575	1049.7	1009.3	-5.0279	-5.0279	-9.3164	10922			
1053.5	300.00	0.30050	0.026800	11213	11213	0.026700	0.29940	0.0100000	40.000	1035.0	10935	0.096945	1051.0	1010.6	-4.2521	-4.2521	-5.9537	10935			
1054.8	300.00	0.30030	0.027400	10960	11408	0.026200	0.29890	0.0100000	40.000	1036.0	10921	0.095461	1052.3	1012.0	-5.4612	-5.4612	-2.5815	10921			
1056.2	300.00	0.29910	0.026100	11460	11464	0.026100	0.29920	0.0100000	40.000	1037.0	10867	0.090106	1053.6	1013.3	-2.4065	-2.4065	1.6295	10867			
1057.5	300.00	0.30030	0.027400	10960	10356	0.028900	0.29930	0.0100000	40.000	1038.0	10920	0.095375	1054.9	1014.6	4.2399	4.2399	5.6182	10920			
1058.8	300.00	0.30040	0.027600	10884	10346	0.028900	0.29900	0.0100000	40.000	1039.0	10920	0.095393	1056.3	1015.9	16.027	16.027	9.1917	10920			
1060.1	300.00	0.30150	0.029100	10361	10289	0.029100	0.29940	0.0100000	40.000	1040.0	10922	0.095628	1057.6	1017.2	15.692	15.692	9.9562	10922			
1061.5	300.00	0.30060	0.025900	11606	10693	0.028000	0.29940	0.0100000	40.000	1041.0	10972	0.10060	1058.9	1018.6	12.406	12.406	8.0018	10972			
1062.8	300.00	0.30070	0.030300	9924.1	11502	0.026100	0.30020	0.0100000	40.000	1042.0	10997	0.10317	1060.2	1019.9	1.4161	1.4161	3.8950	10997			
1064.1	300.00	0.29860	0.029900	9986.6	9865.1	0.030400	0.29990	0.0100000	40.000	1043.0	10964	0.099844	1061.6	1021.2	-5.5319	-5.5319	0.29142	10964			
1065.4	300.00	0.29940	0.025300	11834	11236	0.026700	0.30000	0.0100000	40.000	1044.0	10935	0.096944	1062.9	1022.5	-4.5068	-4.5068	-3.1706	10935			
1066.7	300.00	0.30060	0.027400	10971	11228	0.026700	0.29980	0.0100000	40.000	1045.0	10966	0.10005	1064.2	1023.8	-2.3263	-2.3263	-4.7152	10966			
1068.1	300.00	0.30060	0.028500	10547	10375	0.028800	0.29880	0.0100000	40.000	1046.0	10967	0.10008	1065.5	1025.2	-4.9041	-4.9041	-2.2733	10967			
1069.4	300.00	0.30030	0.026800	11205	10931	0.027500	0.30060	0.0100000	40.000	1047.0	10933	0.096733	1066.8	1026.5	-6.3068	-6.3068	1.9795	10933			
1070.7	300.00	0.30000	0.026000	11538	11384	0.026300	0.29940	0.0100000	40.000	1048.0	10919	0.095353	1068.2	1027.8	6.6775	6.6775	6.6321	10919			
1072.0	300.00	0.29910	0.026500	11287	11210	0.026700	0.29930	0.0100000	40.000	1049.0	10948	0.098235	1069.5	1029.1	16.757	16.757	9.9221	10948			
1073.4	300.00	0.29960	0.028900	10367	11209	0.026800	0.30040	0.0100000	40.000	1050.0	11003	0.10376	1070.8	1030.5	20.937	20.937	13.196	11003			
1074.7	300.00	0.29990	0.027700	10827	11658	0.025700	0.29960	0.0100000	40.000	1051.0	11002	0.10364	1072.1	1031.8	11.546	11.546	13.860	11002			
1076.0	300.00	0.30120	0.027900	10796	11531	0.026000	0.29980	0.0100000	40.000	1052.0	11031	0.10653	1073.4	1033.1	10.061	10.061	11.553	11031			
1077.3	300.00	0.30140	0.028400	10613	10742	0.027900	0.29970	0.0100000	40.000	1053.0	11011	0.10450	1074.8	1034.4	10.002	10.002	9.6531	11011			
1078.6	300.00	0.30030	0.025700	11685	10313	0.029100	0.30010	0.0100000	40.000	1054.0	11065	0.10999	1076.1	1035.7	5.2212	5.2212	9.3294	11065			
1080.0	300.00	0.29950	0.025800	11609	11340	0.026500	0.30050	0.0100000	40.000	1055.0	11051	0.10853	1077.4	1037.1	11.436	11.436	9.2257	11051			
1081.3	300.00	0.30040	0.028700	10467	11220	0.026800	0.30070	0.0100000	40.000	1056.0	11045	0.10797	1078.7	1038.4	9.9275	9.9275	7.4359	11045			
1082.6	300.00	0.30010	0.026700	11240	10707	0.028000	0.29980	0.0100000	40.000	1057.0	11096	0.11309	1080.1	1039.7	9.5423	9.5423	4.7765	11096			
1083.9	300.00	0.30010	0.028100	10680	11175	0.026900	0.30060	0.0100000	40.000	1058.0	11108	0.11429	1081.4	1041.0	1.0528	1.0528	1.7625	11108			
1085.2	300.00	0.29930	0.027700	10805	10960	0.027400	0.30030	0.0100000	40.000	1059.0	11082	0.11170	1082.7	1042.3	-8.0762	-8.0762	-0.047796	11082			
1086.6	300.00	0.29920	0.029600	10108	11502	0.026100	0.30020	0.0100000	40.000	1060.0	11059	0.10937	1084.0	1043.7	-3.6336	-3.6336	-0.46026	11059			
1087.9	300.00	0.30020	0.028500	10533	10264	0.029200	0.29970	0.0100000	40.000	1061.0	11067	0.11020	1085.3	1045.0	0.87586	0.87586	2.0255	11067			
1089.2	300.00	0.29930	0.027400	10923	11298	0.026500	0.29940	0.0100000	40.000	1062.0	11092	0.11263	1086.7	1046.3	7.4799	7.4799	7.2208	11092			
1090.5	300.00	0.30110	0.026600	11320	11077	0.027100	0.30020	0.0100000	40.000	1063.0	11072	0.11064	1088.0	1047.6	13.482	13.482	10.965	11072			
1091.9	300.00	0.30050	0.028200	10656	11015	0.027200	0.29960	0.0100000	40.000	1064.0	11106	0.11410	1089.3	1049.0	17.900	17.900	13.258	11106			
1093.2	300.00	0.29970	0.026200	11439	10931	0.027400	0.29950	0.0100000	40.000	1065.0	11149	0.11840	1090.6	1050.3	15.088	15.088	13.300	11149			
1094.5	300.00	0.30000	0.028400	10563	11111	0.027100	0.30110	0.0100000	40.000	1066.0	11171	0.12062	1091.9	1051.6	12.341	12.341	12.116	11171			
1095.8	300.00	0.29950	0.029200	10257	11447	0.026200	0.29990	0.0100000	40.000	1067.0	11139	0.11739	1093.3	1052.9	7.6880	7.6880	9.7680	11139			
1097.1	300.00	0.29960	0.027000	11096	11183	0.026800	0.29970	0.0100000	40.000	1068.0	11193	0.12279	1094.6	1054.2	7.5639	7.5639	8.4784	11193			
1098.5	300.00	0.29970	0.026500	11309	10841	0.027600	0.29920	0.0100000	40.000	1069.0	11189	0.12241	1095.9	1055.6	6.1593	6.1593	9.1747	11189			
1099.8	300.00	0.29990	0.028000	10711	10721	0.028000	0.30020	0.0100000	40.000	1070.0	11196	0.12312	1097.2	1056.9	8.6397	8.6397	10.949	11196			
1101.1	300.00	0.30050	0.025200	11925	11384	0.026300	0.29940	0.0100000	40.000	1071.0	11178	0.12131	1098.6	1058.2	15.823	15.823	11.370	11178			
1102.4	300.00	0.29960	0.028000	10700	12167	0.024600	0.29930	0.0100000	40.000	1072.0	11256	0.12907	1099.9	1059.5	16.560	16.560	9.3086	11256			
1103.7	300.00	0.29950	0.025700	11654	11114	0.027100	0.30120	0.0100000	40.000	1073.0	11264	0.12993	1101.2	1060.8	9.6705	9.6705	6.1374	11264			
1105.1	300.00	0.30030	0.026300	11418	11466	0.026200	0.30040	0.0100000	40.000	1074.0	11263	0.12978	1102.5	1062.2	-4.1497	-4.1497	0.70139	11263			
1106.4	300.00	0.30070	0.026800	11220	11213	0.026700	0.29940	0.0100000	40.000	1075.0	11239	0.12736	1103.8	1063.5	-7.2161	-7.2161	-4.4119	11239			
1107.7	300.00	0.29980	0.026300	11399	11803	0.025400	0.29980	0.0100000	40.000	1076.0	11241	0.12760	1105.2	1064.8	-11.357	-11.357	-7.6816	11241			
1109.0	300.00	0.30030	0.025200	11917	10544	0.028500	0.30050	0.0100000	40.000	1077.0	11227	0.12623	1106.5	1066.1	-9.0067	-9.0067	-5.8041	11227			
1110.4	300.00	0.29920	0.025200	11873	11838	0.025300	0.29950	0.0100000	40.000	1078.0	11193	0.12282	1107.8	1067.5	-6.6778	-6.6778	-1.4875	11193			
1111.7	300.00	0.29970	0.026900	11141	11096	0.027000	0.29960	0.0100000	40.000	1079.0	11203	0.12378	1109.1	1068.8	5.2376	5.2376	1.6653	11203			
1113.0	300.00	0.30060	0.026000	11562	11107	0.027000	0.29990	0.0100000	40.000	1080.0	11209	0.12440	1110.4	1070.1	14.367	14.367	3.0838	11209			
1114.3	300.00	0.30040	0.028600	10504	11122	0.027000	0.30030	0.0100000	40.000	1081.0	11254	0.12891	1111.8	1071.4	4.4065	4.4065	2.3406	11254			
1115.6	300.00	0.30010	0.024700	12150	11889	0.025300	0.30080	0.0100000	40.000	1082.0	11263	0.12978	1113.1	1072.7	-1.9145	-1.9145	-1.5533	11263			
1117.0	300.00	0.29940	0.027700	10809	11477	0.026200	0.30070	0.0100000	40.000	1083.0	11205	0.12401	1114.4	1074.1	-10.394	-10.394	-6.6429	11205			
1118.3	300.00	0.29870	0.025200	11853	11048	0.027100	0.29940	0.0100000	40.000	1084.0	11221	0.12558	1115.7	1075.4	-14.232	-14.232	-8.2870	11221			
1119.6	300.00	0.30030	0.027400	10960	10507	0.028600	0.30050	0.0100000	40.000	1085.0	11206	0.12412	1117.1	1076.7	-11.081	-11.081	-9.0764	11206			
1120.9	300.00	0.29970	0.028600	10479	10982	0.027400	0.30090	0.0100000	40.000	1086.0	11168	0.12029	1118.4	1078.0	-3.8140	-3.8140	-8.3756	11168			
1122.2	300.00	0.29920	0.026300	11376	10824	0.027800	0.30090	0.0100000	40.000	1087.0	11158	0.11931	1119.7	1079.4	-5.8613	-5.8613	-7.9330	11158			
1123.6	300.00	0.29950	0.024900	12028	10732	0.028000	0.30050	0.0100000	40.000	1088.0	11220	0.12546	1121.0	1080.7	-6.8898	-6.8898	-9.5681	11220			
1124.9	300.00	0.30060	0.025500	11788	11384	0.026300	0.29940	0.0100000	40.000	1089.0	11142	0.11765	1122.3	1082.0	-12.019	-12.019	-11.756	11142			
1126.2	300.00	0.29960	0.028400	10549	10971	0.027400	0.30060	0.0100000	40.000	1090.0	11131	0.11656	1123.7	1083.3	-19.257	-19.257	-13.821	11131			
1127.5	300.00	0.29960	0.024900	12032	11665	0.025700	0.29980	0.0100000	40.000	1091.0	11123	0.11580	1125.0	1084.6	-14.756	-14.756	-13.822	11123			
1128.9	300.00	0.30040	0.027400	10964	11565	0.026000	0.30070	0.0100000	40.000	1092.0	11102	0.11362	1126.3	1086.0	-16.182	-16.182	-9.2552	11102			
1130.2	300.00	0.29950	0.025400	11791	10960	0.027400	0.30030	0.0100000	40.000	1093.0	11059	0.10934	1127.6	1087.3	-6.8949	-6.8949	-1.8994	11059			
1131.5	300.00	0.30050	0.025900	11602	11443	0.026200	0.29980	0.0100000	40.000	1094.0	11056	0.10906	1129.0	1088.6	10.814	10.814	4.8482	11056			
1132.8	300.00	0.30000	0.028600	10490	11160	0.026900	0.30020	0.0100000	40.000	1095.0	11100	0.11351	1130.3	1089.9	17.522	17.522	10.842	11100			
1134.1	300.00	0.29930	0.028600	10465	10412	0.028900	0.30090	0.0100000	40.000	1096.0	11152	0.11871	1131.6	1091.2	18.982	18.982	13.987	11152			
1135.5	300.00	0.30080	0.026500	11351	11598	0.025900	0.30040	0.0100000	40.000	1097.0	11127	0.11613	1132.9	1092.6	13.789	13.789	14.257	11127			
1136.8	300.00	0.30020	0.026400	11371	11830	0.025300	0.29930	0.0100000	40.000	1098.0	11168	0.12033	1134.2	1093.9	8.8303	8.8303	10.886	11168			
1138.1	300.00	0.29910	0.027800	10759	10204	0.029400	0.30000	0.0100000	40.000	1099.0	11183	0.12184	1135.6	1095.2	12.160	12.160	6.2648	11183			
1139.4	300.00	0.30000	0.025800	11628	10866	0.027700	0.30100	0.0100000	40.000	1100.0	11182	0.12171	1136.9	1096.5	0.66682	0.66682	3.6910	11182			
1140.8	300.00	0.30110	0.028200	10677	10949	0.027500	0.30110	0.0100000	40.000	1101.0	11200	0.12350	1138.2	1097.9	-4.1216	-4.1216	2.9366	11200			
1142.1	300.00	0.30050	0.026200	11469	10667	0.028200	0.30080	0.0100000	40.000	1102.0	11165	0.11994	1139.5	1099.2	0.91990	0.91990	3.3784	11165			
1143.4	300.00	0.30000	0.027300	10989	10993	0.027200	0.29900	0.0100000	40.000	1103.0	11165	0.11999	1140.8	1100.5	5.0583	5.0583	7.3859	11165			
1144.7	300.00	0.29950	0.027400	10931	11418	0.026300	0.30030	0.0100000	40.000	1104.0	11206	0.12407	1142.2	1101.8	14.368	14.368	10.989	11206			
1146.0	300.00	0.29950	0.026700	11217	11980	0.025000	0.29950	0.0100000	40.000	1105.0	11213	0.12479	1143.5	1103.1	20.704	20.704	11.868	11213			
1147.4	300.00	0.29990	0.028700	10449	11595	0.025900	0.30030	0.0100000	40.000	1106.0	11236	0.12706	1144.8	1104.5	13.893	13.893	12.137	11236			
1148.7	300.00	0.29900	0.028000	10679	10443	0.028700	0.29970	0.0100000	40.000	1107.0	11287	0.13222	1146.1	1105.8	5.3180	5.3180	11.085	11287			
1150.0	300.00	0.30020	0.025600	11727	11703	0.025600	0.29960	0.0100000	40.000	1108.0	11261	0.12957	1147.5	1107.1	6.4020	6.4020	10.461	11261			
1151.3	300.00	0.30030	0.028400	10574	11048	0.027200	0.30050	0.0100000	40.000	1109.0	11236	0.12706	1148.8	1108.4	9.1077	9.1077	11.900	11236			
1152.6	300.00	0.30000	0.027100	11070	11356	0.026400	0.29980	0.0100000	40.000	1110.0	11304	0.13388	1150.1	1109.7	17.584	17.584	11.878	11304			
1154.0	300.00	0.30000	0.027900	10753	11347	0.026500	0.30070	0.0100000	40.000	1111.0	11326	0.13610	1151.4	1111.1	21.091	21.091	9.3007	11326			
1155.3	300.00	0.29900	0.026500	11283	10920	0.027400	0.29920	0.0100000	40.000	1112.0	11332	0.13671	1152.7	1112.4	5.2042	5.2042	3.3356	11332			
1156.6	300.00	0.29910	0.027900	10720	11575	0.025900	0.29980	0.0100000	40.000	1113.0	11361	0.13963	1154.1	1113.7	-6.4831	-6.4831	-6.7942	11361			
1157.9	300.00	0.30070	0.026600	11305	11815	0.025400	0.30010	0.0100000	40.000	1114.0	11320	0.13557	1155.4	1115.0	-20.718	-20.718	-16.534	11320			
1159.3	300.00	0.30010	0.026400	11367	11593	0.025800	0.29910	0.0100000	40.000	1115.0	11288	0.13237	1156.7	1116.4	-33.066	-33.066	-23.449	11288			
1160.6	300.00	0.29940	0.026700	11213	11636	0.025800	0.30020	0.0100000	40.000	1116.0	11231	0.12661	1158.0	1117.7	-27.608	-27.608	-25.747	11231			
1161.9	300.00	0.29890	0.026500	11279	11490	0.026100	0.29990	0.0100000	40.000	1117.0	11187	0.12219	1159.3	1119.0	-29.369	-29.369	-23.061	11187			
1163.2	300.00	0.30000	0.026600	11278	11044	0.027200	0.30040	0.0100000	40.000	1118.0	11189	0.12236	1160.7	1120.3	-17.976	-17.976	-16.292	11189			
1164.5	300.00	0.30100	0.027700	10866	11306	0.026500	0.29960	0.0100000	40.000	1119.0	11116	0.11503	1162.0	1121.6	-7.2885	-7.2885	-7.7368	11116			
1165.9	300.00	0.30070	0.027100	11096	11632	0.025800	0.30010	0.0100000	40.000	1120.0	11148	0.11827	1163.3	1123.0	0.78128	0.78128	-0.56563	11148			
1167.2	300.00	0.30070	0.028400	10588	11330	0.026400	0.29910	0.0100000	40.000	1121.0	11159	0.11940	1164.6	1124.3	15.168	15.168	2.0775	11159			
1168.5	300.00	0.29920	0.027200	11000	11077	0.027100	0.30020	0.0100000	40.000	1122.0	11172	0.12069	1166.0	1125.6	6.4866	6.4866	-0.14717	11172			
1169.8	300.00	0.29960	0.027500	10895	11278	0.026600	0.30000	0.0100000	40.000	1123.0	11204	0.12387	1167.3	1126.9	-4.7604	-4.7604	-6.4847	11204			
1171.1	300.00	0.30050	0.026500	11340	10142	0.029600	0.30020	0.0100000	40.000	1124.0	11168	0.12033	1168.6	1128.3	-18.412	-18.412	-14.930	11168			
1172.5	300.00	0.29990	0.026300	11403	10749	0.027900	0.29990	0.0100000	40.000	1125.0	11130	0.11642	1169.9	1129.6	-30.906	-30.906	-20.270	11130			
1173.8	300.00	0.30010	0.028000	10718	10773	0.027800	0.29950	0.0100000	40.000	1126.0	11087	0.11221	1171.2	1130.9	-27.060	-27.060	-21.349	11087			
1175.1	300.00	0.29930	0.025900	11556	10670	0.028200	0.30090	0.0100000	40.000	1127.0	11040	0.10745	1172.6	1132.2	-20.211	-20.211	-17.615	11040			
1176.4	300.00	0.30010	0.027200	11033	10477	0.028700	0.30070	0.0100000	40.000	1128.0	11034	0.10688	1173.9	1133.5	-10.157	-10.157	-10.501	11034			
1177.8	300.00	0.30030	0.028900	10391	10169	0.029600	0.30100	0.0100000	40.000	1129.0	11023	0.10569	1175.2	1134.9	0.26039	0.26039	-3.6306	11023			
1179.1	300.00	0.30090	0.026900	11186	11727	0.025600	0.30020	0.0100000	40.000	1130.0	11029	0.10636	1176.5	1136.2	4.6614	4.6614	1.0817	11029			
1180.4	300.00	0.30030	0.026400	11375	11593	0.025800	0.29910	0.0100000	40.000	1131.0	11044	0.10789	1177.9	1137.5	7.2935	7.2935	3.9003	11044			
1181.7	300.00	0.30110	0.028700	10491	11616	0.025800	0.29970	0.0100000	40.000	1132.0	11054	0.10887	1179.2	1138.8	3.3504	3.3504	5.0864	11054			
1183.0	300.00	0.29920	0.028200	10610	11587	0.025900	0.30010	0.0100000	40.000	1133.0	11058	0.10927	1180.5	1140.1	3.9359	3.9359	6.0212	11058			
1184.4	300.00	0.29940	0.025800	11605	10834	0.027700	0.30010	0.0100000	40.000	1134.0	11044	0.10789	1181.8	1141.5	6.1906	6.1906	6.6868	11044			
1185.7	300.00	0.29950	0.028100	10658	10996	0.027300	0.30020	0.0100000	40.000	1135.0	11075	0.11099	1183.1	1142.8	9.3358	9.3358	7.4091	11075			
1187.0	300.00	0.29990	0.028000	10711	10711	0.028000	0.29990	0.0100000	40.000	1136.0	11087	0.11212	1184.5	1144.1	10.621	10.621	8.0145	11087			
1188.3	300.00	0.29960	0.028500	10512	10640	0.028300	0.30110	0.0100000	40.000	1137.0	11099	0.11334	1185.8	1145.4	6.9618	6.9618	7.2816	11099			
1189.7	300.00	0.30000	0.026800	11194	11371	0.026400	0.30020	0.0100000	40.000	1138.0	11103	0.11375	1187.1	1146.8	6.9632	6.9632	3.8426	11103			
1191.0	300.00	0.30050	0.027100	11089	10795	0.027800	0.30010	0.0100000	40.000	1139.0	11113	0.11479	1188.4	1148.1	2.5260	2.5260	-1.8864	11113			
1192.3	300.00	0.29980	0.027600	10862	11445	0.026300	0.30100	0.0100000	40.000	1140.0	11125	0.11601	1189.7	1149.4	-7.8593	-7.8593	-8.1884	11125			
1193.6	300.00	0.29980	0.027400	10942	11952	0.025000	0.29880	0.0100000	40.000	1141.0	11104	0.11389	1191.1	1150.7	-18.023	-18.023	-12.993	11104			
1194.9	300.00	0.30050	0.027100	11089	11536	0.026100	0.30110	0.0100000	40.000	1142.0	11055	0.10899	1192.4	1152.0	-24.549	-24.549	-14.524	11055			
1196.3	300.00	0.30140	0.026200	11504	11160	0.026900	0.30020	0.0100000	40.000	1143.0	11029	0.10635	1193.7	1153.4	-17.058	-17.058	-11.076	11029			
1197.6	300.00	0.29960	0.026900	11138	10989	0.027300	0.30000	0.0100000	40.000	1144.0	11001	0.10351	1195.0	1154.7	-5.1330	-5.1330	-3.5916	11001			
1198.9	300.00	0.29980	0.025000	11992	10791	0.027800	0.30000	0.0100000	40.000	1145.0	11019	0.10532	1196.4	1156.0	9.3833	9.3833	5.3921	11019			
1200.2	300.00	0.30080	0.028700	10481	10985	0.027300	0.29990	0.0100000	40.000	1146.0	11027	0.10610	1197.7	1157.3	19.398	19.398	12.102	11027			
1201.5	300.00	0.29850	0.026800	11138	11029	0.027200	0.30000	0.0100000	40.000	1147.0	11078	0.11127	1199.0	1158.6	20.370	20.370	13.633	11078			
1202.9	300.00	0.30030	0.025000	12012	10756	0.027900	0.30010	0.0100000	40.000	1148.0	11099	0.11339	1200.3	1160.0	16.493	16.493	10.394	11099			
1204.2	300.00	0.29970	0.028900	10370	10694	0.028100	0.30050	0.0100000	40.000	1149.0	11117	0.11518	1201.6	1161.3	2.5188	2.5188	3.6135	11117			
1205.5	300.00	0.30000	0.027400	10949	10425	0.028700	0.29920	0.0100000	40.000	1150.0	11116	0.11508	1203.0	1162.6	-6.8107	-6.8107	-3.3483	11116			
1206.8	300.00	0.29990	0.027100	11066	11282	0.026600	0.30010	0.0100000	40.000	1151.0	11086	0.11209	1204.3	1163.9	-14.504	-14.504	-7.6164	11086			
1208.2	300.00	0.29910	0.027300	10956	10568	0.028500	0.30120	0.0100000	40.000	1152.0	11070	0.11042	1205.6	1165.3	-14.439	-14.439	-7.1147	11070			
1209.5	300.00	0.29900	0.029000	10310	11063	0.027200	0.30090	0.0100000	40.000	1153.0	11044	0.10789	1206.9	1166.6	-4.8472	-4.8472	-3.6506	11044			
1210.8	300.00	0.29980	0.025700	11665	10993	0.027400	0.30120	0.0100000	40.000	1154.0	11042	0.10761	1208.2	1167.9	5.0274	5.0274	-0.55611	11042			
1212.1	300.00	0.30020	0.026200	11458	11213	0.026700	0.29940	0.0100000	40.000	1155.0	11068	0.11029	1209.6	1169.2	10.510	10.510	0.98050	11068			
1213.4	300.00	0.30040	0.026300	11422	11160	0.026900	0.30020	0.0100000	40.000	1156.0	11091	0.11256	1210.9	1170.5	0.96888	0.96888	1.0876	11091			
1214.8	300.00	0.30020	0.027100	11077	11792	0.025500	0.30070	0.0100000	40.000	1157.0	11089	0.11239	1212.2	1171.9	-6.7563	-6.7563	3.4050	11089			
1216.1	300.00	0.29970	0.027300	10978	11085	0.027200	0.30150	0.0100000	40.000	1158.0	11038	0.10720	1213.5	1173.2	-4.3118	-4.3118	6.7333	11038			
1217.4	300.00	0.30000	0.027100	11070	11745	0.025500	0.29950	0.0100000	40.000	1159.0	11050	0.10849	1214.9	1174.5	16.614	16.614	11.657	11050			
1218.7	300.00	0.29920	0.026900	11123	10774	0.027900	0.30060	0.0100000	40.000	1160.0	11082	0.11165	1216.2	1175.8	27.152	27.152	16.888	11082			
1220.0	300.00	0.29950	0.028500	10509	10819	0.027700	0.29970	0.0100000	40.000	1161.0	11177	0.12117	1217.5	1177.2	25.586	25.586	21.008	11177			
1221.4	300.00	0.29950	0.025700	11654	11602	0.025900	0.30050	0.0100000	40.000	1162.0	11154	0.11885	1218.8	1178.5	19.399	19.399	20.668	11154			
1222.7	300.00	0.29990	0.027700	10827	11007	0.027300	0.30050	0.0100000	40.000	1163.0	11184	0.12184	1220.1	1179.8	16.289	16.289	17.064	11184			
1224.0	300.00	0.30100	0.028700	10488	11100	0.027100	0.30080	0.0100000	40.000	1164.0	11207	0.12417	1221.5	1181.1	14.916	14.916	11.659	11207			
1225.3	300.00	0.30010	0.028500	10530	11550	0.026000	0.30030	0.0100000	40.000	1165.0	11258	0.12931	1222.8	1182.4	9.1291	9.1291	5.1158	11258			
1226.7	300.00	0.30090	0.027500	10942	11267	0.026600	0.29970	0.0100000	40.000	1166.0	11215	0.12501	1224.1	1183.8	-1.4391	-1.4391	-1.9701	11215			
1228.0	300.00	0.30030	0.026600	11289	10949	0.027500	0.30110	0.0100000	40.000	1167.0	11240	0.12748	1225.4	1185.1	-13.316	-13.316	-8.7087	11240			
1229.3	300.00	0.30040	0.025200	11921	9943.9	0.030300	0.30130	0.0100000	40.000	1168.0	11206	0.12413	1226.7	1186.4	-19.141	-19.141	-11.482	11206			
1230.6	300.00	0.29950	0.026400	11345	11026	0.027200	0.29990	0.0100000	40.000	1169.0	11174	0.12092	1228.1	1187.7	-18.777	-18.777	-9.2202	11174			
1231.9	300.00	0.30030	0.027000	11122	11356	0.026400	0.29980	0.0100000	40.000	1170.0	11121	0.11560	1229.4	1189.0	-4.7371	-4.7371	-2.3174	11121			
1233.3	300.00	0.30090	0.028300	10633	12419	0.024100	0.29930	0.0100000	40.000	1171.0	11158	0.11930	1230.7	1190.4	9.8697	9.8697	3.7623	11158			
1234.6	300.00	0.30050	0.027800	10809	10796	0.027900	0.30120	0.0100000	40.000	1172.0	11183	0.12181	1232.0	1191.7	21.198	21.198	6.9419	11183			
1235.9	300.00	0.29940	0.028300	10580	11195	0.026700	0.29890	0.0100000	40.000	1173.0	11209	0.12436	1233.4	1193.0	11.258	11.258	6.3118	11209			
1237.2	300.00	0.29910	0.026700	11202	11550	0.026000	0.30030	0.0100000	40.000	1174.0	11236	0.12712	1234.7	1194.3	-2.8787	-2.8787	1.4777	11236			
1238.5	300.00	0.30040	0.026300	11422	12068	0.024900	0.30050	0.0100000	40.000	1175.0	11206	0.12410	1236.0	1195.7	-7.8879	-7.8879	-2.3224	11206			
1239.9	300.00	0.29950	0.027400	10931	10313	0.029100	0.30010	0.0100000	40.000	1176.0	11165	0.12003	1237.3	1197.0	-14.301	-14.301	-1.2822	11165			
1241.2	300.00	0.29940	0.025400	11787	11677	0.025700	0.30010	0.0100000	40.000	1177.0	11192	0.12268	1238.6	1198.3	2.1972	2.1972	3.7418	11192			
1242.5	300.00	0.29970	0.026800	11183	11092	0.027100	0.30060	0.0100000	40.000	1178.0	11149	0.11835	1240.0	1199.6	16.459	16.459	9.1837	11149			
1243.8	300.00	0.30040	0.028300	10615	10412	0.028900	0.30090	0.0100000	40.000	1179.0	11229	0.12640	1241.3	1200.9	22.241	22.241	12.904	11229			
1245.2	300.00	0.30010	0.026000	11542	10631	0.028200	0.29980	0.0100000	40.000	1180.0	11256	0.12908	1242.6	1202.3	19.321	19.321	11.369	11256			
1246.5	300.00	0.29900	0.026200	11412	11548	0.025900	0.29910	0.0100000	40.000	1181.0	11285	0.13206	1243.9	1203.6	4.2989	4.2989	5.1971	11285			
1247.8	300.00	0.29970	0.027400	10938	11345	0.026400	0.29950	0.0100000	40.000	1182.0	11248	0.12833	1245.3	1204.9	-5.4771	-5.4771	-4.0393	11248			
1249.1	300.00	0.29990	0.028300	10597	12137	0.024800	0.30100	0.0100000	40.000	1183.0	11261	0.12962	1246.6	1206.2	-14.399	-14.399	-12.420	11261			
1250.4	300.00	0.30000	0.027900	10753	11585	0.026000	0.30120	0.0100000	40.000	1184.0	11232	0.12666	1247.9	1207.5	-23.941	-23.941	-17.441	11232			
1251.8	300.00	0.30150	0.027000	11167	10469	0.028600	0.29940	0.0100000	40.000	1185.0	11199	0.12334	1249.2	1208.9	-22.584	-22.584	-19.312	11199			
1253.1	300.00	0.29940	0.026000	11515	10696	0.028000	0.29950	0.0100000	40.000	1186.0	11121	0.11560	1250.5	1210.2	-20.802	-20.802	-15.409	11121			
1254.4	300.00	0.30010	0.027700	10834	11822	0.025300	0.29910	0.0100000	40.000	1187.0	11167	0.12018	1251.9	1211.5	-14.832	-14.832	-8.3765	11167			
1255.7	300.00	0.30130	0.027500	10956	10043	0.030000	0.30130	0.0100000	40.000	1188.0	11110	0.11445	1253.2	1212.8	5.1132	5.1132	-0.82094	11110			
1257.1	300.00	0.29990	0.028400	10560	11628	0.025800	0.30000	0.0100000	40.000	1189.0	11106	0.11408	1254.5	1214.2	11.223	11.223	5.3539	11106			
1258.4	300.00	0.30020	0.028700	10460	11587	0.025900	0.30010	0.0100000	40.000	1190.0	11185	0.12204	1255.8	1215.5	15.193	15.193	5.2864	11185			
1259.7	300.00	0.29920	0.025700	11642	11980	0.025100	0.30070	0.0100000	40.000	1191.0	11203	0.12383	1257.1	1216.8	10.073	10.073	-0.33972	11203			
1261.0	300.00	0.30100	0.026100	11533	11638	0.025700	0.29910	0.0100000	40.000	1192.0	11162	0.11965	1258.5	1218.1	-15.170	-15.170	-5.8900	11162			
1262.3	300.00	0.30010	0.025600	11723	11066	0.027100	0.29990	0.0100000	40.000	1193.0	11185	0.12195	1259.8	1219.4	-23.017	-23.017	-10.634	11185			
1263.7	300.00	0.30010	0.027800	10795	10576	0.028300	0.29930	0.0100000	40.000	1194.0	11095	0.11292	1261.1	1220.8	-16.529	-16.529	-12.651	11095			
1265.0	300.00	0.30110	0.025000	12044	10855	0.027600	0.29960	0.0100000	40.000	1195.0	11085	0.11194	1262.4	1222.1	-8.5246	-8.5246	-8.3695	11085			
1266.3	300.00	0.29990	0.027000	11107	10446	0.028700	0.29980	0.0100000	40.000	1196.0	11102	0.11370	1263.8	1223.4	-0.016597	-0.016597	-2.6529	11102			
1267.6	300.00	0.30050	0.025000	12020	11273	0.026700	0.30100	0.0100000	40.000	1197.0	11124	0.11591	1265.1	1224.7	6.2396	6.2396	1.3743	11124			
1268.9	300.00	0.30080	0.025300	11889	10477	0.028700	0.30070	0.0100000	40.000	1198.0	11075	0.11092	1266.4	1226.0	5.5654	5.5654	4.1216	11075			
1270.3	300.00	0.30090	0.027700	10863	11015	0.027300	0.30070	0.0100000	40.000	1199.0	11140	0.11746	1267.7	1227.4	3.6079	3.6079	2.2911	11140			
1271.6	300.00	0.30070	0.027100	11096	12077	0.024800	0.29950	0.0100000	40.000	1200.0	11131	0.11661	1269.0	1228.7	5.2115	5.2115	-1.5257	11131			
1272.9	300.00	0.30110	0.027900	10792	11007	0.027200	0.29940	0.0100000	40.000	1201.0	11120	0.11546	1270.4	1230.0	-9.1688	-9.1688	-4.7112	11120			
1274.2	300.00	0.30070	0.027700	10856	10673	0.028100	0.29990	0.0100000	40.000	1202.0	11119	0.11538	1271.7	1231.3	-12.845	-12.845	-6.3165	11119			
1275.6	300.00	0.29830	0.028600	10430	11827	0.025400	0.30040	0.0100000	40.000	1203.0	11085	0.11200	1273.0	1232.7	-10.362	-10.362	-6.2850	11085			
1276.9	300.00	0.29990	0.026500	11317	10247	0.029200	0.29920	0.0100000	40.000	1204.0	11064	0.10983	1274.3	1234.0	-4.4190	-4.4190	-3.3723	11064			
1278.2	300.00	0.30100	0.028100	10712	11379	0.026400	0.30040	0.0100000	40.000	1205.0	11079	0.11137	1275.6	1235.3	5.3691	5.3691	0.070378	11079			
1279.5	300.00	0.30050	0.025600	11738	10838	0.027700	0.30020	0.0100000	40.000	1206.0	11093	0.11277	1277.0	1236.6	5.3949	5.3949	4.6647	11093			
1280.8	300.00	0.29950	0.026000	11519	11159	0.027000	0.30130	0.0100000	40.000	1207.0	11106	0.11409	1278.3	1237.9	4.3686	4.3686	7.4226	11106			
1282.2	300.00	0.29980	0.028000	10707	10778	0.027900	0.30070	0.0100000	40.000	1208.0	11086	0.11204	1279.6	1239.3	12.610	12.610	8.0939	11086			
1283.5	300.00	0.29920	0.029200	10247	11412	0.026200	0.29900	0.0100000	40.000	1209.0	11112	0.11463	1280.9	1240.6	9.3709	9.3709	7.9541	11112			
1284.8	300.00	0.30000	0.028200	10638	11450	0.026200	0.30000	0.0100000	40.000	1210.0	11174	0.12086	1282.3	1241.9	8.7256	8.7256	6.1406	11174			
1286.1	300.00	0.30030	0.027800	10802	11345	0.026400	0.29950	0.0100000	40.000	1211.0	11124	0.11589	1283.6	1243.2	4.6958	4.6958	5.2295	11124			
1287.4	300.00	0.30020	0.027200	11037	11964	0.025000	0.29910	0.0100000	40.000	1212.0	11137	0.11719	1284.9	1244.6	-4.6990	-4.6990	5.1232	11137			
1288.8	300.00	0.29860	0.027300	10938	10931	0.027400	0.29950	0.0100000	40.000	1213.0	11161	0.11957	1286.2	1245.9	8.0544	8.0544	6.9590	11161			
1290.1	300.00	0.30070	0.028000	10739	10611	0.028300	0.30030	0.0100000	40.000	1214.0	11124	0.11591	1287.5	1247.2	8.8393	8.8393	9.8388	11124			
1291.4	300.00	0.30020	0.026800	11201	10898	0.027500	0.29970	0.0100000	40.000	1215.0	11184	0.12187	1288.9	1248.5	17.905	17.905	13.114	11184			
1292.7	300.00	0.30030	0.027000	11122	11149	0.026900	0.29990	0.0100000	40.000	1216.0	11184	0.12190	1290.2	1249.8	19.095	19.095	12.048	11184			
1294.1	300.00	0.29980	0.025900	11575	10722	0.028100	0.30130	0.0100000	40.000	1217.0	11249	0.12844	1291.5	1251.2	11.676	11.676	7.7197	11249			
1295.4	300.00	0.29950	0.025800	11609	10845	0.027700	0.30040	0.0100000	40.000	1218.0	11218	0.12528	1292.8	1252.5	2.7231	2.7231	1.1751	11218			
1296.7	300.00	0.30130	0.025700	11724	11018	0.027300	0.30080	0.0100000	40.000	1219.0	11244	0.12792	1294.1	1253.8	-12.800	-12.800	-7.4734	11244			
1298.0	300.00	0.29940	0.027800	10770	12320	0.024400	0.30060	0.0100000	40.000	1220.0	11205	0.12396	1295.5	1255.1	-14.818	-14.818	-14.093	11205			
1299.3	300.00	0.30020	0.027400	10956	11037	0.027100	0.29910	0.0100000	40.000	1221.0	11171	0.12061	1296.8	1256.4	-24.148	-24.148	-15.709	11171			
1300.7	300.00	0.29950	0.026100	11475	11279	0.026500	0.29890	0.0100000	40.000	1222.0	11156	0.11911	1298.1	1257.8	-21.421	-21.421	-12.507	11156			
1302.0	300.00	0.30050	0.025600	11738	11171	0.026900	0.30050	0.0100000	40.000	1223.0	11109	0.11435	1299.4	1259.1	-5.3572	-5.3572	-7.7285	11109			
1303.3	300.00	0.29910	0.027900	10720	11059	0.027100	0.29970	0.0100000	40.000	1224.0	11094	0.11290	1300.8	1260.4	3.2094	3.2094	-1.1886	11094			
1304.6	300.00	0.29980	0.025000	11992	11496	0.026000	0.29890	0.0100000	40.000	1225.0	11167	0.12017	1302.1	1261.7	9.0735	9.0735	3.9944	11167			
1305.9	300.00	0.29940	0.026300	11384	11384	0.026300	0.29940	0.0100000	40.000	1226.0	11148	0.11833	1303.4	1263.1	8.5516	8.5516	7.0642	11148			
1307.3	300.00	0.30080	0.029500	10197	12207	0.024600	0.30030	0.0100000	40.000	1227.0	11142	0.11765	1304.7	1264.4	4.4948	4.4948	7.2209	11142			
1308.6	300.00	0.30080	0.026700	11266	10497	0.028600	0.30020	0.0100000	40.000	1228.0	11163	0.11983	1306.0	1265.7	9.9915	9.9915	5.2329	11163			
1309.9	300.00	0.30100	0.028600	10524	11332	0.026500	0.30030	0.0100000	40.000	1229.0	11189	0.12240	1307.4	1267.0	3.9931	3.9931	2.9118	11189			
1311.2	300.00	0.30100	0.027500	10945	10583	0.028300	0.29950	0.0100000	40.000	1230.0	11191	0.12257	1308.7	1268.3	-0.86653	-0.86653	1.0936	11191			
1312.6	300.00	0.29950	0.027000	11093	10749	0.027900	0.29990	0.0100000	40.000	1231.0	11154	0.11892	1310.0	1269.7	-3.0539	-3.0539	-1.2613	11154			
1313.9	300.00	0.29960	0.029200	10260	11030	0.027100	0.29890	0.0100000	40.000	1232.0	11175	0.12099	1311.3	1271.0	-4.5962	-4.5962	-2.2455	11175			
1315.2	300.00	0.30050	0.030000	10017	10967	0.027400	0.30050	0.0100000	40.000	1233.0	11177	0.12117	1312.7	1272.3	-1.7830	-1.7830	-2.7853	11177			
1316.5	300.00	0.30010	0.028000	10718	10628	0.028200	0.29970	0.0100000	40.000	1234.0	11149	0.11841	1314.0	1273.6	-0.92795	-0.92795	-4.1462	11149			
1317.8	300.00	0.30010	0.026300	11411	12133	0.024800	0.30090	0.0100000	40.000	1235.0	11156	0.11903	1315.3	1274.9	-3.5653	-3.5653	-6.2361	11156			
1319.2	300.00	0.29970	0.029000	10334	10512	0.028500	0.29960	0.0100000	40.000	1236.0	11180	0.12144	1316.6	1276.3	-9.8585	-9.8585	-8.8155	11180			
1320.5	300.00	0.29980	0.028000	10707	11007	0.027300	0.30050	0.0100000	40.000	1237.0	11138	0.11729	1317.9	1277.6	-15.046	-15.046	-8.0681	11138			
1321.8	300.00	0.29990	0.026100	11490	11178	0.026900	0.30070	0.0100000	40.000	1238.0	11093	0.11275	1319.3	1278.9	-14.680	-14.680	-4.3744	11093			
1323.1	300.00	0.29940	0.027600	10848	11383	0.026400	0.30050	0.0100000	40.000	1239.0	11099	0.11341	1320.6	1280.2	2.8090	2.8090	1.3683	11099			
1324.4	300.00	0.30050	0.028000	10732	11055	0.027100	0.29960	0.0100000	40.000	1240.0	11102	0.11365	1321.9	1281.6	14.903	14.903	9.6331	11102			
1325.8	300.00	0.29910	0.026600	11244	11556	0.026100	0.30160	0.0100000	40.000	1241.0	11152	0.11870	1323.2	1282.9	18.855	18.855	17.902	11152			
1327.1	300.00	0.30020	0.026400	11371	11469	0.026200	0.30050	0.0100000	40.000	1242.0	11165	0.11998	1324.5	1284.2	26.278	26.278	20.987	11165			
1328.4	300.00	0.29980	0.028200	10631	11316	0.026600	0.30100	0.0100000	40.000	1243.0	11192	0.12274	1325.9	1285.5	26.666	26.666	18.624	11192			
1329.7	300.00	0.30080	0.029100	10337	10594	0.028300	0.29980	0.0100000	40.000	1244.0	11255	0.12904	1327.2	1286.8	18.234	18.234	13.389	11255			
1331.1	300.00	0.29970	0.025200	11893	11190	0.026800	0.29990	0.0100000	40.000	1245.0	11283	0.13184	1328.5	1288.2	3.0894	3.0894	6.6382	11283			
1332.4	300.00	0.30010	0.025900	11587	12000	0.025000	0.30000	0.0100000	40.000	1246.0	11240	0.12752	1329.8	1289.5	-7.3229	-7.3229	1.9296	11240			
1333.7	300.00	0.29890	0.026200	11408	10514	0.028600	0.30070	0.0100000	40.000	1247.0	11221	0.12555	1331.2	1290.8	-7.4754	-7.4754	-0.62404	11221			
1335.0	300.00	0.29950	0.027200	11011	11257	0.026800	0.30170	0.0100000	40.000	1248.0	11238	0.12733	1332.5	1292.1	3.1231	3.1231	-1.9612	11238			
1336.3	300.00	0.30120	0.025200	11952	10635	0.028200	0.29990	0.0100000	40.000	1249.0	11235	0.12698	1333.8	1293.4	5.4656	5.4656	-2.6044	11235			
1337.7	300.00	0.29940	0.025600	11695	11383	0.026400	0.30050	0.0100000	40.000	1250.0	11254	0.12888	1335.1	1294.8	-3.5966	-3.5966	-4.5963	11254			
1339.0	300.00	0.30010	0.023700	12662	11640	0.025800	0.30030	0.0100000	40.000	1251.0	11249	0.12840	1336.4	1296.1	-10.539	-10.539	-7.1322	11249			
1340.3	300.00	0.29920	0.026900	11123	11018	0.027200	0.29970	0.0100000	40.000	1252.0	11207	0.12424	1337.8	1297.4	-17.435	-17.435	-9.2026	11207			
1341.6	300.00	0.30030	0.026200	11462	11607	0.025700	0.29830	0.0100000	40.000	1253.0	11188	0.12231	1339.1	1298.7	-9.5564	-9.5564	-10.698	11188			
1343.0	300.00	0.30010	0.025600	11723	12287	0.024400	0.29980	0.0100000	40.000	1254.0	11169	0.12037	1340.4	1300.1	-4.8863	-4.8863	-11.329	11169			
1344.3	300.00	0.29960	0.026500	11306	11213	0.026800	0.30050	0.0100000	40.000	1255.0	11205	0.12400	1341.7	1301.4	-11.073	-11.073	-10.314	11205			
1345.6	300.00	0.30090	0.027500	10942	11228	0.026700	0.29980	0.0100000	40.000	1256.0	11167	0.12015	1343.0	1302.7	-13.696	-13.696	-8.3759	11167			
1346.9	300.00	0.30010	0.025700	11677	10101	0.029800	0.30100	0.0100000	40.000	1257.0	11116	0.11508	1344.4	1304.0	-12.360	-12.360	-5.2261	11116			
1348.2	300.00	0.30070	0.026900	11178	11380	0.026300	0.29930	0.0100000	40.000	1258.0	11123	0.11575	1345.7	1305.3	0.13555	0.13555	-1.6307	11123			
1349.6	300.00	0.29900	0.027100	11033	11104	0.027000	0.29980	0.0100000	40.000	1259.0	11145	0.11801	1347.0	1306.7	10.863	10.863	1.7889	11145			
1350.9	300.00	0.30020	0.026200	11458	11780	0.025500	0.30040	0.0100000	40.000	1260.0	11153	0.11878	1348.3	1308.0	6.9039	6.9039	5.8882	11153			
1352.2	300.00	0.30050	0.026200	11469	10956	0.027400	0.30020	0.0100000	40.000	1261.0	11173	0.12077	1349.7	1309.3	3.4015	3.4015	7.7600	11173			
1353.5	300.00	0.30040	0.026700	11251	10683	0.028100	0.30020	0.0100000	40.000	1262.0	11155	0.11895	1351.0	1310.6	8.1370	8.1370	8.2138	11155			
1354.8	300.00	0.29900	0.027700	10794	11066	0.027100	0.29990	0.0100000	40.000	1263.0	11167	0.12018	1352.3	1311.9	9.4944	9.4944	9.1758	11167			
1356.2	300.00	0.29940	0.026800	11172	10909	0.027400	0.29890	0.0100000	40.000	1264.0	11210	0.12446	1353.6	1313.3	13.132	13.132	11.453	11210			
1357.5	300.00	0.30030	0.026700	11247	11355	0.026500	0.30090	0.0100000	40.000	1265.0	11208	0.12430	1354.9	1314.6	11.714	11.714	13.910	11208			
1358.8	300.00	0.30070	0.028200	10663	10384	0.028900	0.30010	0.0100000	40.000	1266.0	11221	0.12559	1356.3	1315.9	14.786	14.786	16.535	11221			
1360.1	300.00	0.30080	0.026300	11437	10938	0.027400	0.29970	0.0100000	40.000	1267.0	11239	0.12738	1357.6	1317.2	20.425	20.425	16.019	11239			
1361.5	300.00	0.30030	0.026900	11164	10655	0.028100	0.29940	0.0100000	40.000	1268.0	11292	0.13273	1358.9	1318.6	22.619	22.619	13.427	11292			
1362.8	300.00	0.30040	0.025900	11598	11730	0.025600	0.30030	0.0100000	40.000	1269.0	11307	0.13427	1360.2	1319.9	10.549	10.549	10.534	11307			
1364.1	300.00	0.30060	0.026200	11473	10795	0.027800	0.30010	0.0100000	40.000	1270.0	11336	0.13714	1361.5	1321.2	-1.2423	-1.2423	7.2845	11336			
1365.4	300.00	0.29980	0.026700	11228	11799	0.025400	0.29970	0.0100000	40.000	1271.0	11286	0.13216	1362.9	1322.5	0.31945	0.31945	7.7072	11286			
1366.7	300.00	0.29990	0.026600	11274	11259	0.026600	0.29950	0.0100000	40.000	1272.0	11294	0.13296	1364.2	1323.8	4.1766	4.1766	10.936	11294			
1368.1	300.00	0.29990	0.027300	10985	11275	0.026500	0.29880	0.0100000	40.000	1273.0	11330	0.13657	1365.5	1325.2	24.733	24.733	16.404	11330			
1369.4	300.00	0.29930	0.026700	11210	12504	0.024000	0.30010	0.0100000	40.000	1274.0	11342	0.13770	1366.8	1326.5	26.691	26.691	20.971	11342			
1370.7	300.00	0.30000	0.025600	11719	12253	0.024500	0.30020	0.0100000	40.000	1275.0	11426	0.14619	1368.2	1327.8	26.098	26.098	23.796	11426			
1372.0	300.00	0.30080	0.027100	11100	11483	0.026100	0.29970	0.0100000	40.000	1276.0	11423	0.14584	1369.5	1329.1	23.156	23.156	21.410	11423			
1373.3	300.00	0.29900	0.027900	10717	11602	0.025900	0.30050	0.0100000	40.000	1277.0	11462	0.14980	1370.8	1330.5	18.300	18.300	17.328	11462			
1374.7	300.00	0.29950	0.026900	11134	11220	0.026800	0.30070	0.0100000	40.000	1278.0	11477	0.15124	1372.1	1331.8	12.806	12.806	10.878	11477			
1376.0	300.00	0.30030	0.026600	11289	11704	0.025700	0.30080	0.0100000	40.000	1279.0	11520	0.15562	1373.4	1333.1	6.2798	6.2798	3.9416	11520			
1377.3	300.00	0.29980	0.025700	11665	11703	0.025600	0.29960	0.0100000	40.000	1280.0	11478	0.15142	1374.8	1334.4	-6.1500	-6.1500	-1.4817	11478			
1378.6	300.00	0.30030	0.026200	11462	10739	0.028000	0.30070	0.0100000	40.000	1281.0	11503	0.15387	1376.1	1335.7	-11.528	-11.528	-7.5182	11503			
1380.0	300.00	0.30030	0.026800	11205	11122	0.027000	0.30030	0.0100000	40.000	1282.0	11445	0.14804	1377.4	1337.1	-8.8163	-8.8163	-12.638	11445			
1381.3	300.00	0.29990	0.025100	11948	11441	0.026100	0.29860	0.0100000	40.000	1283.0	11461	0.14967	1378.7	1338.4	-17.376	-17.376	-16.438	11461			
1382.6	300.00	0.30050	0.028200	10656	11302	0.026500	0.29950	0.0100000	40.000	1284.0	11441	0.14768	1380.1	1339.7	-19.319	-19.319	-19.468	11441			
1383.9	300.00	0.30010	0.024900	12052	12686	0.023600	0.29940	0.0100000	40.000	1285.0	11390	0.14254	1381.4	1341.0	-25.148	-25.148	-20.035	11390			
1385.2	300.00	0.29930	0.025900	11556	11282	0.026600	0.30010	0.0100000	40.000	1286.0	11353	0.13880	1382.7	1342.3	-26.678	-26.678	-16.914	11353			
1386.6	300.00	0.29890	0.025700	11630	11213	0.026800	0.30050	0.0100000	40.000	1287.0	11339	0.13744	1384.0	1343.7	-11.654	-11.654	-13.986	11339			
1387.9	300.00	0.30010	0.026900	11156	11240	0.026700	0.30010	0.0100000	40.000	1288.0	11290	0.13255	1385.3	1345.0	-1.7680	-1.7680	-9.7733	11290			
1389.2	300.00	0.30060	0.028500	10547	11571	0.025900	0.29970	0.0100000	40.000	1289.0	11344	0.13794	1386.7	1346.3	-4.6837	-4.6837	-7.0722	11344			
1390.5	300.00	0.30010	0.026100	11498	10851	0.027600	0.29950	0.0100000	40.000	1290.0	11338	0.13738	1388.0	1347.6	-4.0826	-4.0826	-6.4500	11338			
1391.8	300.00	0.30020	0.026100	11502	11308	0.026600	0.30080	0.0100000	40.000	1291.0	11284	0.13192	1389.3	1349.0	-13.173	-13.173	-6.4748	11284			
1393.2	300.00	0.29910	0.024600	12159	10578	0.028200	0.29830	0.0100000	40.000	1292.0	11293	0.13285	1390.6	1350.3	-8.5431	-8.5431	-9.1529	11293			
1394.5	300.00	0.29910	0.025500	11729	11601	0.025800	0.29930	0.0100000	40.000	1293.0	11280	0.13147	1391.9	1351.6	-1.8915	-1.8915	-13.242	11280			
1395.8	300.00	0.29980	0.025400	11803	10859	0.027600	0.29970	0.0100000	40.000	1294.0	11284	0.13194	1393.3	1352.9	-18.075	-18.075	-17.111	11284			
1397.1	300.00	0.29970	0.025500	11753	11427	0.026200	0.29940	0.0100000	40.000	1295.0	11276	0.13112	1394.6	1354.2	-24.530	-24.530	-20.856	11276			
1398.5	300.00	0.29970	0.025600	11707	11471	0.026100	0.29940	0.0100000	40.000	1296.0	11176	0.12105	1395.9	1355.6	-32.518	-32.518	-23.015	11176			
1399.8	300.00	0.30110	0.027500	10949	11198	0.026800	0.30010	0.0100000	40.000	1297.0	11172	0.12066	1397.2	1356.9	-27.266	-27.266	-20.713	11172			
1401.1	300.00	0.29840	0.024900	11984	10577	0.028400	0.30040	0.0100000	40.000	1298.0	11121	0.11561	1398.6	1358.2	-12.690	-12.690	-15.233	11121			
1402.4	300.00	0.29990	0.025600	11715	12350	0.024300	0.30010	0.0100000	40.000	1299.0	11123	0.11576	1399.9	1359.5	-6.5635	-6.5635	-5.1762	11123			
1403.7	300.00	0.29930	0.025700	11646	11587	0.025900	0.30010	0.0100000	40.000	1300.0	11116	0.11509	1401.2	1360.8	2.8733	2.8733	4.9925	11116			
1405.1	300.00	0.29950	0.026500	11302	10560	0.028400	0.29990	0.0100000	40.000	1301.0	11131	0.11658	1402.5	1362.2	17.765	17.765		11131			
1406.4	300.00	0.29990	0.026200	11447	10934	0.027400	0.29960	0.0100000	40.000	1302.0	11136	0.11711	1403.8	1363.5	23.578	23.578		11136			
1407.7	300.00	0.30130	0.025500	11816	10834	0.027700	0.30010	0.0100000	40.000	1303.0	11230	0.12652	1405.2	1364.8				11230			
1409.0	300.00	0.30070	0.024900	12076	11538	0.026000	0.30000	0.0100000	40.000	1304.0	11222	0.12574	1406.5	1366.1				11222			
1410.4	300.00	0.30070	0.026200	11477	11130	0.026900	0.29940	0.0100000	40.000	1305.0			1407.8	1367.5							
1411.7	300.00	0.30020	0.025400	11819	10577	0.028400	0.30040	0.0100000	40.000	1306.0			1409.1	1368.8							
1413.0	300.00	0.30050	0.026200	11469	11201	0.026800	0.30020	0.0100000	40.000	1307.0			1410.4	1370.1							
1414.3	300.00	0.30070	0.028800	10441	10156	0.029500	0.29960	0.0100000	40.000	1308.0			1411.8	1371.4							
1415.6	300.00	0.30140	0.024700	12202	11271	0.026600	0.29980	0.0100000	40.000	1309.0			1413.1	1372.7							
1417.0	300.00	0.29970	0.027400	10938	11430	0.026300	0.30060	0.0100000	40.000	1310.0			1414.4	1374.1							
1418.3	300.00	0.30090	0.028500	10558	11164	0.026900	0.30030	0.0100000	40.000	1311.0			1415.7	1375.4							
1419.6	300.00	0.29990	0.026500	11317	11420	0.026400	0.30150	0.0100000	40.000	1312.0			1417.1	1376.7							
1420.9	300.00	0.30000	0.026400	11364	12548	0.023900	0.29990	0.0100000	40.000	1313.0			1418.4	1378.0							
1422.2	300.00	0.29990	0.025800	11624	11437	0.026300	0.30080	0.0100000	40.000	1314.0			1419.7	1379.3							
